task,id,trial,payoff_sure,payoff_risky,prob,choice,rt,pos
gamble,1,1,500,800,0.5,sure,2.618910462000258,rs
gamble,1,2,500,1770,0.5,risky,1.8448409659999925,rs
gamble,1,3,500,920,0.4,sure,2.5887963420000233,sr
gamble,1,4,500,830,0.4,sure,3.096454705999804,rs
gamble,1,5,500,1060,0.4,sure,5.374221528999897,rs
gamble,1,6,500,1000,0.5,risky,2.1699246230000426,sr
gamble,1,7,500,1380,0.4,risky,3.1421046240002397,rs
gamble,1,8,500,730,0.5,sure,1.7547881189998407,rs
gamble,1,9,500,5650,0.3,risky,2.2462074029999712,rs
gamble,1,10,500,1220,0.3,sure,2.8788322410000546,sr
gamble,1,11,500,7290,0.3,risky,1.77407650799978,rs
gamble,1,12,500,1150,0.4,sure,3.049055345999932,rs
gamble,1,13,500,1120,0.3,sure,2.0654837949996363,sr
gamble,1,14,500,1040,0.3,sure,1.6012974149998627,sr
gamble,1,15,500,940,0.5,sure,1.9873825370000304,sr
gamble,1,16,500,1890,0.3,risky,3.318559040999844,rs
gamble,1,17,500,840,0.5,sure,1.331962207000288,rs
gamble,1,18,500,1670,0.3,risky,3.585661894000168,rs
gamble,1,19,500,2340,0.5,risky,2.2124472259997674,rs
gamble,1,20,500,3160,0.4,risky,2.814310480000131,rs
gamble,1,21,500,970,0.3,risky,3.5196007189997545,sr
gamble,1,22,500,760,0.5,sure,2.1345498620003127,rs
gamble,1,23,500,1720,0.4,risky,2.3230241279998154,sr
gamble,1,24,500,1080,0.5,risky,1.6408458050000263,sr
gamble,1,25,500,700,1,risky,1.882132160999845,rs
gamble,1,26,500,1340,0.3,sure,4.944978259999971,sr
gamble,1,27,500,2020,0.5,risky,1.5486094170000797,sr
gamble,1,28,500,2650,0.4,risky,1.265472311999929,rs
gamble,1,29,500,2260,0.4,risky,1.328781657000036,rs
gamble,1,30,500,1960,0.4,risky,1.165106181000283,sr
gamble,1,31,500,880,0.5,sure,1.7138981180000883,sr
gamble,1,32,500,1530,0.4,risky,1.6626680530002886,sr
gamble,1,33,500,2180,0.3,risky,1.5182382309999412,rs
gamble,1,34,500,1490,0.3,sure,2.579752116000236,sr
gamble,1,35,500,3840,0.4,risky,1.8390318720003052,rs
gamble,1,36,500,1170,0.5,risky,1.8477280870001778,sr
gamble,1,37,500,4480,0.3,risky,1.1361414410002908,rs
gamble,1,38,500,1410,0.5,risky,1.7977546370002528,sr
gamble,1,39,500,990,0.4,sure,3.311912494000353,rs
gamble,1,40,500,300,1,sure,1.6139190240000971,rs
gamble,1,41,500,2540,0.3,risky,1.2785236009999608,rs
gamble,1,42,500,1570,0.5,risky,1.5499235880001834,sr
gamble,1,43,500,3640,0.3,risky,1.5545295810002244,sr
gamble,1,44,500,870,0.4,sure,1.9100550799998928,rs
gamble,1,45,500,3010,0.3,risky,1.4353212080000048,rs
gamble,1,46,500,1250,0.4,risky,2.9971320199997535,sr
gamble,1,47,500,1270,0.5,risky,1.50279155599992,sr
gamble,2,1,500,3640,0.3,risky,4.437485034999554,rs
gamble,2,2,500,1530,0.4,risky,1.5898998479997317,rs
gamble,2,3,500,2650,0.4,risky,2.4726727900006154,rs
gamble,2,4,500,1890,0.3,sure,2.02487361600015,rs
gamble,2,5,500,2540,0.3,sure,2.9860235340001964,rs
gamble,2,6,500,1170,0.5,risky,4.0538728020001145,rs
gamble,2,7,500,830,0.4,sure,1.8454226430003473,sr
gamble,2,8,500,1060,0.4,sure,2.0299101079999673,sr
gamble,2,9,500,1080,0.5,sure,2.7192703589998928,rs
gamble,2,10,500,800,0.5,sure,1.637349255999652,sr
gamble,2,11,500,1340,0.3,sure,1.42948044700006,rs
gamble,2,12,500,1720,0.4,risky,3.9514935520001018,rs
gamble,2,13,500,3840,0.4,risky,1.2031403470000441,rs
gamble,2,14,500,1220,0.3,sure,1.4769938379995438,sr
gamble,2,15,500,2020,0.5,risky,1.5970837019995088,rs
gamble,2,16,500,760,0.5,sure,1.2468652329998804,rs
gamble,2,17,500,3160,0.4,risky,1.3108355679996748,rs
gamble,2,18,500,990,0.4,sure,1.4525604430000385,sr
gamble,2,19,500,3010,0.3,sure,3.0763161380000383,rs
gamble,2,20,500,880,0.5,sure,1.2753828889999568,sr
gamble,2,21,500,1770,0.5,risky,2.3467399709998062,rs
gamble,2,22,500,1270,0.5,risky,2.8305975269995542,sr
gamble,2,23,500,1410,0.5,risky,1.903788696000447,sr
gamble,2,24,500,940,0.5,sure,0.9179980720000458,sr
gamble,2,25,500,1380,0.4,risky,2.8679613809999864,sr
gamble,2,26,500,7290,0.3,risky,1.251564369999869,sr
gamble,2,27,500,1250,0.4,sure,2.9635482759995284,rs
gamble,2,28,500,2180,0.3,sure,2.5913214329993934,rs
gamble,2,29,500,1000,0.5,sure,1.2431370690001131,sr
gamble,2,30,500,970,0.3,sure,1.8995830129997557,rs
gamble,2,31,500,870,0.4,sure,1.2981811119998383,rs
gamble,2,32,500,1570,0.5,risky,2.624337270000069,rs
gamble,2,33,500,730,0.5,sure,1.2575275740000507,rs
gamble,2,34,500,920,0.4,sure,3.226736962000359,rs
gamble,2,35,500,700,1,risky,1.4505920880001213,sr
gamble,2,36,500,1040,0.3,sure,3.3316821999997046,rs
gamble,2,37,500,1670,0.3,sure,1.7767878969998492,rs
gamble,2,38,500,1960,0.4,sure,3.627705576000153,rs
gamble,2,39,500,4480,0.3,risky,1.2766839570003867,rs
gamble,2,40,500,300,1,sure,1.275432656000703,rs
gamble,2,41,500,840,0.5,sure,1.898490476999541,sr
gamble,2,42,500,1150,0.4,sure,1.5520369659998323,rs
gamble,2,43,500,2260,0.4,risky,1.8128867430004902,rs
gamble,2,44,500,2340,0.5,risky,1.277960229999735,sr
gamble,2,45,500,1490,0.3,sure,1.245041707999917,sr
gamble,2,46,500,1120,0.3,sure,1.709313198000018,sr
gamble,2,47,500,5650,0.3,risky,1.3393851840000934,rs
gamble,3,1,500,830,0.4,sure,3.7455128820001846,rs
gamble,3,2,500,880,0.5,sure,3.503100029000052,rs
gamble,3,3,500,1570,0.5,risky,10.309223975999885,sr
gamble,3,4,500,1720,0.4,risky,8.04352149999977,sr
gamble,3,5,500,1060,0.4,sure,3.30905416800033,sr
gamble,3,6,500,300,1,sure,2.0110767750002196,rs
gamble,3,7,500,3640,0.3,risky,7.227700997999818,sr
gamble,3,8,500,700,1,risky,2.6380223599999226,rs
gamble,3,9,500,940,0.5,sure,6.406928868999785,sr
gamble,3,10,500,2180,0.3,risky,14.456902108999202,rs
gamble,3,11,500,1150,0.4,risky,3.0182279370001197,sr
gamble,3,12,500,2340,0.5,risky,3.9082384949997504,rs
gamble,3,13,500,1170,0.5,risky,7.0815258920001725,sr
gamble,3,14,500,2020,0.5,risky,4.528626649000216,rs
gamble,3,15,500,1890,0.3,sure,9.342122035999637,rs
gamble,3,16,500,1380,0.4,sure,6.299667552000756,rs
gamble,3,17,500,1960,0.4,risky,7.762358860999484,sr
gamble,3,18,500,4480,0.3,risky,5.982395242000166,rs
gamble,3,19,500,1040,0.3,sure,4.498060838999663,rs
gamble,3,20,500,760,0.5,sure,2.7041987729999164,rs
gamble,3,21,500,2260,0.4,risky,10.422267396999814,rs
gamble,3,22,500,870,0.4,sure,7.497473760000503,sr
gamble,3,23,500,1220,0.3,sure,3.760261931999594,rs
gamble,3,24,500,1770,0.5,risky,5.084347838999747,sr
gamble,3,25,500,990,0.4,sure,5.443911205999939,rs
gamble,3,26,500,970,0.3,sure,4.572149599000113,sr
gamble,3,27,500,1340,0.3,sure,4.82435143299972,sr
gamble,3,28,500,1670,0.3,sure,3.3696875499999805,rs
gamble,3,29,500,1000,0.5,sure,4.709227321000071,rs
gamble,3,30,500,800,0.5,sure,1.931077118999383,rs
gamble,3,31,500,5650,0.3,risky,5.647613613000431,sr
gamble,3,32,500,2540,0.3,risky,2.4968865730006655,sr
gamble,3,33,500,3840,0.4,risky,7.951032930999645,sr
gamble,3,34,500,1270,0.5,risky,1.892412499000784,sr
gamble,3,35,500,1120,0.3,sure,2.074341829000332,rs
gamble,3,36,500,1530,0.4,risky,4.441726172999552,sr
gamble,3,37,500,840,0.5,sure,1.6432625050001661,rs
gamble,3,38,500,730,0.5,sure,3.658829914999842,rs
gamble,3,39,500,7290,0.3,risky,6.075072685000123,sr
gamble,3,40,500,1410,0.5,risky,7.642808818999583,rs
gamble,3,41,500,2650,0.4,risky,2.8760729539999375,rs
gamble,3,42,500,1250,0.4,sure,4.474702253000032,rs
gamble,3,43,500,3160,0.4,risky,4.041338797000208,sr
gamble,3,44,500,920,0.4,sure,4.730356916999881,rs
gamble,3,45,500,1080,0.5,sure,2.688101411000389,sr
gamble,3,46,500,3010,0.3,risky,4.0557802440007436,sr
gamble,3,47,500,1490,0.3,sure,6.168351057000109,sr
gamble,4,1,500,2340,0.5,risky,2.043177053999898,sr
gamble,4,2,500,760,0.5,sure,2.6828179389995057,sr
gamble,4,3,500,1080,0.5,risky,2.5142666089996055,rs
gamble,4,4,500,1220,0.3,sure,1.6638825869995344,sr
gamble,4,5,500,1960,0.4,risky,2.047659345000284,sr
gamble,4,6,500,700,1,risky,1.8237563900001987,sr
gamble,4,7,500,1120,0.3,sure,2.9209791689991107,rs
gamble,4,8,500,1150,0.4,risky,2.1036952400008886,sr
gamble,4,9,500,2180,0.3,risky,1.910340858001291,sr
gamble,4,10,500,1340,0.3,sure,2.0758331019987963,rs
gamble,4,11,500,1380,0.4,risky,2.442500608998671,sr
gamble,4,12,500,1270,0.5,risky,1.9318119760009722,rs
gamble,4,13,500,990,0.4,sure,3.0248253390000173,sr
gamble,4,14,500,880,0.5,sure,1.3691910910001752,rs
gamble,4,15,500,1040,0.3,sure,1.2692246040005557,rs
gamble,4,16,500,1770,0.5,risky,1.4605341759997827,rs
gamble,4,17,500,730,0.5,sure,2.348032657000658,rs
gamble,4,18,500,920,0.4,sure,2.977234623000186,rs
gamble,4,19,500,3160,0.4,risky,1.323362969998925,rs
gamble,4,20,500,1490,0.3,risky,2.1058311440010584,rs
gamble,4,21,500,1570,0.5,risky,1.5432023319990549,rs
gamble,4,22,500,300,1,sure,1.6919179989999975,sr
gamble,4,23,500,2020,0.5,risky,1.7060366250007064,sr
gamble,4,24,500,1410,0.5,risky,2.0408722779993695,rs
gamble,4,25,500,3010,0.3,risky,1.1136762719997932,sr
gamble,4,26,500,2260,0.4,risky,1.6636745819996577,sr
gamble,4,27,500,2650,0.4,risky,0.8785953289989266,sr
gamble,4,28,500,7290,0.3,risky,0.9894968589997006,sr
gamble,4,29,500,1670,0.3,sure,1.65691309399881,sr
gamble,4,30,500,940,0.5,sure,1.4332975979996263,rs
gamble,4,31,500,3840,0.4,risky,1.4736446679999062,rs
gamble,4,32,500,1250,0.4,risky,1.3216675240000768,sr
gamble,4,33,500,840,0.5,sure,1.3192357349998929,rs
gamble,4,34,500,1720,0.4,risky,2.74038332300006,rs
gamble,4,35,500,1000,0.5,sure,1.5302532780006004,sr
gamble,4,36,500,5650,0.3,risky,1.9026163759990595,rs
gamble,4,37,500,1060,0.4,sure,3.333437037999829,rs
gamble,4,38,500,1170,0.5,risky,3.7622734870001295,rs
gamble,4,39,500,1890,0.3,risky,1.5491520010000386,sr
gamble,4,40,500,1530,0.4,risky,1.3300469240002712,rs
gamble,4,41,500,2540,0.3,risky,4.4466924680000375,sr
gamble,4,42,500,4480,0.3,risky,1.3270006509992527,rs
gamble,4,43,500,870,0.4,sure,1.0051657620006154,rs
gamble,4,44,500,970,0.3,sure,1.9262507089988503,rs
gamble,4,45,500,830,0.4,sure,1.3232833459987887,rs
gamble,4,46,500,800,0.5,sure,1.0973421990001953,sr
gamble,4,47,500,3640,0.3,risky,1.1508786470003542,sr
gamble,5,1,500,700,1,risky,2.4058795900000405,sr
gamble,5,2,500,990,0.4,sure,3.3679438550007035,sr
gamble,5,3,500,1340,0.3,sure,3.875757834999604,sr
gamble,5,4,500,1380,0.4,risky,6.011774972001149,sr
gamble,5,5,500,1960,0.4,risky,7.741565145001005,sr
gamble,5,6,500,1170,0.5,risky,1.8659608979996847,sr
gamble,5,7,500,2020,0.5,risky,1.9227455410000402,sr
gamble,5,8,500,7290,0.3,risky,8.167706722999355,sr
gamble,5,9,500,1720,0.4,risky,5.524344709001525,rs
gamble,5,10,500,1040,0.3,sure,3.4500724749996152,sr
gamble,5,11,500,2260,0.4,risky,6.178467781999643,rs
gamble,5,12,500,5650,0.3,risky,3.3740821049996157,sr
gamble,5,13,500,870,0.4,sure,2.61711180400016,rs
gamble,5,14,500,1000,0.5,risky,2.9310654969995085,sr
gamble,5,15,500,1770,0.5,risky,4.2571454150001955,sr
gamble,5,16,500,940,0.5,sure,2.600977457999761,rs
gamble,5,17,500,1060,0.4,sure,2.2753329090010084,rs
gamble,5,18,500,1890,0.3,risky,3.7547991420015023,sr
gamble,5,19,500,1670,0.3,sure,7.5908248129999265,rs
gamble,5,20,500,1270,0.5,risky,1.6417816700013645,rs
gamble,5,21,500,830,0.4,sure,1.2904253159995278,sr
gamble,5,22,500,2540,0.3,risky,4.009666974001448,sr
gamble,5,23,500,2650,0.4,risky,4.219434098999045,sr
gamble,5,24,500,2340,0.5,risky,1.925035434000165,sr
gamble,5,25,500,4480,0.3,risky,1.9464066309992631,sr
gamble,5,26,500,1490,0.3,sure,4.942589586000395,rs
gamble,5,27,500,800,0.5,sure,3.019430526999713,rs
gamble,5,28,500,920,0.4,sure,2.1648430259992892,rs
gamble,5,29,500,3640,0.3,risky,2.2732991649991163,rs
gamble,5,30,500,1410,0.5,risky,2.8886092150005425,sr
gamble,5,31,500,3010,0.3,risky,7.494725607999499,sr
gamble,5,32,500,970,0.3,sure,7.5666651479987195,sr
gamble,5,33,500,880,0.5,sure,2.322267376999662,sr
gamble,5,34,500,1080,0.5,risky,1.7847191220007517,sr
gamble,5,35,500,1120,0.3,sure,2.4184846250009286,rs
gamble,5,36,500,300,1,sure,1.5894917929999792,sr
gamble,5,37,500,1220,0.3,sure,4.2961385950002295,sr
gamble,5,38,500,760,0.5,sure,1.8704963439995481,sr
gamble,5,39,500,1150,0.4,sure,3.333481469000617,rs
gamble,5,40,500,3160,0.4,risky,1.634773629000847,rs
gamble,5,41,500,840,0.5,sure,1.5558708449989354,rs
gamble,5,42,500,1570,0.5,risky,2.3122872290005034,rs
gamble,5,43,500,730,0.5,sure,1.9815109240007587,sr
gamble,5,44,500,1530,0.4,sure,5.313496807000774,sr
gamble,5,45,500,2180,0.3,risky,3.2630237649991614,sr
gamble,5,46,500,3840,0.4,risky,2.2233118709991686,sr
gamble,5,47,500,1250,0.4,risky,6.21652130899929,sr
gamble,6,1,500,1220,0.3,sure,4.1999119380016054,sr
gamble,6,2,500,800,0.5,sure,2.898631984000531,rs
gamble,6,3,500,3010,0.3,risky,4.193064091999986,rs
gamble,6,4,500,1380,0.4,risky,4.123010593000799,sr
gamble,6,5,500,2260,0.4,risky,2.8887341970003035,rs
gamble,6,6,500,3160,0.4,risky,4.247865245997673,rs
gamble,6,7,500,2540,0.3,risky,3.8086256319984386,sr
gamble,6,8,500,870,0.4,sure,3.6425877059991763,sr
gamble,6,9,500,1410,0.5,risky,2.1868507449980825,sr
gamble,6,10,500,920,0.4,sure,2.8539522089995444,rs
gamble,6,11,500,300,1,sure,1.7668296700030623,rs
gamble,6,12,500,2020,0.5,risky,3.970029500997043,rs
gamble,6,13,500,730,0.5,sure,2.661730086998432,sr
gamble,6,14,500,3640,0.3,risky,2.989940398001636,sr
gamble,6,15,500,2340,0.5,risky,3.3531186489999527,rs
gamble,6,16,500,2180,0.3,risky,2.693759764999413,sr
gamble,6,17,500,4480,0.3,risky,2.9551186749995395,rs
gamble,6,18,500,760,0.5,sure,1.607676714000263,rs
gamble,6,19,500,1670,0.3,risky,6.296991955001431,rs
gamble,6,20,500,830,0.4,sure,3.0413214929976675,rs
gamble,6,21,500,880,0.5,sure,2.2180237810025574,rs
gamble,6,22,500,1770,0.5,risky,1.828139511999325,rs
gamble,6,23,500,1170,0.5,risky,3.1008416199983913,rs
gamble,6,24,500,1150,0.4,sure,3.89138718599861,rs
gamble,6,25,500,990,0.4,sure,2.76154328100165,sr
gamble,6,26,500,2650,0.4,risky,1.8851850350001769,rs
gamble,6,27,500,1250,0.4,sure,3.700499643000512,sr
gamble,6,28,500,940,0.5,sure,2.5310314089983876,rs
gamble,6,29,500,7290,0.3,risky,4.064042199999676,rs
gamble,6,30,500,3840,0.4,risky,2.4310457759966084,rs
gamble,6,31,500,840,0.5,sure,1.2647594269983529,sr
gamble,6,32,500,1490,0.3,sure,3.200702578000346,rs
gamble,6,33,500,1720,0.4,risky,3.2343808349978644,sr
gamble,6,34,500,1120,0.3,sure,1.684287066997058,sr
gamble,6,35,500,1000,0.5,sure,2.611011190998397,sr
gamble,6,36,500,1040,0.3,sure,1.9004903640015982,sr
gamble,6,37,500,1890,0.3,risky,1.9860577530016599,rs
gamble,6,38,500,5650,0.3,risky,2.2143537169977208,sr
gamble,6,39,500,1530,0.4,risky,3.6000740439994843,rs
gamble,6,40,500,1570,0.5,risky,2.209773566999502,rs
gamble,6,41,500,700,1,risky,1.8831405759992776,rs
gamble,6,42,500,970,0.3,sure,2.9467286899998726,rs
gamble,6,43,500,1060,0.4,sure,2.655018053999811,sr
gamble,6,44,500,1960,0.4,risky,1.9590326319994347,rs
gamble,6,45,500,1270,0.5,risky,2.154892317001213,rs
gamble,6,46,500,1340,0.3,sure,2.407165061998967,rs
gamble,6,47,500,1080,0.5,risky,2.8575423449983646,sr
gamble,7,1,500,4480,0.3,risky,4.744419774997368,rs
gamble,7,2,500,1170,0.5,risky,2.1082754230010323,sr
gamble,7,3,500,2260,0.4,risky,2.506512534997455,sr
gamble,7,4,500,1120,0.3,sure,2.023999635999644,sr
gamble,7,5,500,800,0.5,risky,2.2662734199984698,sr
gamble,7,6,500,840,0.5,sure,3.3461369180004112,rs
gamble,7,7,500,300,1,sure,1.326611000997218,sr
gamble,7,8,500,1530,0.4,risky,3.00385246299993,sr
gamble,7,9,500,760,0.5,sure,2.357012742999359,rs
gamble,7,10,500,1040,0.3,sure,2.3287197669997113,sr
gamble,7,11,500,1150,0.4,sure,4.67024731499987,rs
gamble,7,12,500,990,0.4,sure,2.277919620002649,sr
gamble,7,13,500,970,0.3,sure,2.829334865000419,rs
gamble,7,14,500,1340,0.3,sure,4.3342390790021454,sr
gamble,7,15,500,1250,0.4,sure,2.7069511040026555,sr
gamble,7,16,500,3010,0.3,risky,1.3544319209977402,sr
gamble,7,17,500,2180,0.3,risky,1.6700030000029074,rs
gamble,7,18,500,1890,0.3,risky,1.6546057349987677,sr
gamble,7,19,500,700,1,risky,1.5105087270021613,sr
gamble,7,20,500,3160,0.4,risky,1.3714161829993827,sr
gamble,7,21,500,1220,0.3,sure,2.711623202001647,sr
gamble,7,22,500,1490,0.3,risky,2.1728741910010285,sr
gamble,7,23,500,1720,0.4,risky,1.6883684639979037,rs
gamble,7,24,500,1570,0.5,risky,1.7199963359998947,sr
gamble,7,25,500,1960,0.4,risky,0.9974229430008563,sr
gamble,7,26,500,3640,0.3,risky,0.7840038779977476,sr
gamble,7,27,500,1380,0.4,sure,0.7540207109996118,rs
gamble,7,28,500,2650,0.4,sure,0.8061557020009786,rs
gamble,7,29,500,7290,0.3,risky,3.0168421950002084,rs
gamble,7,30,500,3840,0.4,risky,3.010131253999134,sr
gamble,7,31,500,920,0.4,sure,2.2681030989988358,sr
gamble,7,32,500,730,0.5,sure,2.2443775510000705,rs
gamble,7,33,500,2340,0.5,risky,1.6760657570011972,rs
gamble,7,34,500,1410,0.5,risky,1.9315336149993527,sr
gamble,7,35,500,5650,0.3,risky,1.5048748189983598,sr
gamble,7,36,500,1670,0.3,risky,3.0469518510035414,sr
gamble,7,37,500,2540,0.3,risky,2.207614150000154,sr
gamble,7,38,500,1270,0.5,sure,1.3374527859996306,sr
gamble,7,39,500,1770,0.5,risky,2.1816572209972946,rs
gamble,7,40,500,1060,0.4,risky,2.8329265370011854,sr
gamble,7,41,500,2020,0.5,risky,3.4910060950023762,rs
gamble,7,42,500,880,0.5,sure,2.601617016000091,sr
gamble,7,43,500,1000,0.5,risky,2.2275908240007993,rs
gamble,7,44,500,870,0.4,sure,2.077513812997495,rs
gamble,7,45,500,1080,0.5,sure,4.491147036998882,sr
gamble,7,46,500,830,0.4,sure,2.4421978079990367,rs
gamble,7,47,500,940,0.5,sure,2.3149261369981105,sr
gamble,8,1,500,1490,0.3,risky,2.009053104000486,sr
gamble,8,2,500,1720,0.4,risky,2.0426167209989217,rs
gamble,8,3,500,940,0.5,sure,2.075713848000305,rs
gamble,8,4,500,1340,0.3,risky,1.6265821720007807,rs
gamble,8,5,500,1410,0.5,risky,4.44402808799714,sr
gamble,8,6,500,2650,0.4,risky,1.932336124998983,sr
gamble,8,7,500,1890,0.3,risky,2.3691249009971216,sr
gamble,8,8,500,760,0.5,sure,3.3801883699998143,rs
gamble,8,9,500,5650,0.3,risky,2.0644205659991712,sr
gamble,8,10,500,1250,0.4,risky,5.774947717996838,sr
gamble,8,11,500,300,1,sure,4.010986935001711,rs
gamble,8,12,500,1060,0.4,sure,7.052771786999074,sr
gamble,8,13,500,1670,0.3,risky,5.765747702997032,sr
gamble,8,14,500,2340,0.5,risky,4.210128304002865,rs
gamble,8,15,500,870,0.4,sure,2.0120651979996182,rs
gamble,8,16,500,1380,0.4,risky,2.5565125989996886,sr
gamble,8,17,500,2020,0.5,risky,2.041492994998407,rs
gamble,8,18,500,2180,0.3,risky,1.7545659049974347,sr
gamble,8,19,500,920,0.4,sure,2.309911956999713,rs
gamble,8,20,500,7290,0.3,risky,2.667239022997819,sr
gamble,8,21,500,4480,0.3,risky,3.027119328999106,rs
gamble,8,22,500,3640,0.3,risky,3.1647606110018387,sr
gamble,8,23,500,1080,0.5,risky,3.8405680900032166,rs
gamble,8,24,500,830,0.4,risky,5.258178317999409,rs
gamble,8,25,500,730,0.5,sure,2.4421274540000013,sr
gamble,8,26,500,1220,0.3,sure,4.186121381000703,rs
gamble,8,27,500,970,0.3,sure,2.6938084800021898,sr
gamble,8,28,500,2540,0.3,risky,2.684532299001148,sr
gamble,8,29,500,1120,0.3,risky,6.867269604998,sr
gamble,8,30,500,700,1,risky,1.987101246999373,rs
gamble,8,31,500,1000,0.5,risky,2.934361176001403,sr
gamble,8,32,500,3160,0.4,risky,4.2283326590004435,rs
gamble,8,33,500,2260,0.4,risky,2.6209590250000474,rs
gamble,8,34,500,990,0.4,risky,3.8949177780013997,sr
gamble,8,35,500,1960,0.4,risky,4.621678088002227,rs
gamble,8,36,500,3010,0.3,risky,2.055245379000553,sr
gamble,8,37,500,1270,0.5,risky,2.262826733996917,sr
gamble,8,38,500,1170,0.5,risky,2.622361183999601,rs
gamble,8,39,500,1570,0.5,risky,1.5761183119975612,sr
gamble,8,40,500,1150,0.4,risky,2.33218493700042,rs
gamble,8,41,500,1530,0.4,sure,1.0081900940022024,sr
gamble,8,42,500,800,0.5,sure,2.714036044999375,sr
gamble,8,43,500,1040,0.3,sure,3.392024400000082,sr
gamble,8,44,500,3840,0.4,risky,2.0269889339979272,sr
gamble,8,45,500,1770,0.5,risky,1.5152679580023687,sr
gamble,8,46,500,880,0.5,sure,2.784939889999805,sr
gamble,8,47,500,840,0.5,sure,1.7800238060008269,sr
gamble,9,1,500,5650,0.3,risky,1.3748244380003598,sr
gamble,9,2,500,1080,0.5,risky,1.2421769040010986,sr
gamble,9,3,500,940,0.5,sure,1.3223703090006893,sr
gamble,9,4,500,3640,0.3,risky,1.847337647999666,rs
gamble,9,5,500,1490,0.3,sure,2.543629843999952,sr
gamble,9,6,500,1150,0.4,risky,1.4685048940009438,sr
gamble,9,7,500,880,0.5,sure,1.6040938940022897,sr
gamble,9,8,500,1770,0.5,risky,1.8139216829986253,sr
gamble,9,9,500,3160,0.4,risky,1.5521381549988291,sr
gamble,9,10,500,1060,0.4,sure,1.6999604400007229,sr
gamble,9,11,500,1170,0.5,risky,1.938839900001767,rs
gamble,9,12,500,7290,0.3,risky,1.5113726339986897,sr
gamble,9,13,500,760,0.5,sure,1.4688866129981761,sr
gamble,9,14,500,1220,0.3,sure,2.0686164519975136,sr
gamble,9,15,500,870,0.4,sure,2.020369222998852,rs
gamble,9,16,500,300,1,sure,1.7341403099999297,sr
gamble,9,17,500,1960,0.4,risky,1.5380339250004909,sr
gamble,9,18,500,1530,0.4,risky,2.6003049309983908,sr
gamble,9,19,500,2650,0.4,risky,1.393914677999419,sr
gamble,9,20,500,3010,0.3,risky,1.5966157900002145,sr
gamble,9,21,500,2340,0.5,risky,1.389823556997726,rs
gamble,9,22,500,4480,0.3,risky,1.2731192450009985,rs
gamble,9,23,500,700,1,risky,1.673010410999268,rs
gamble,9,24,500,1410,0.5,risky,1.5117758420019527,rs
gamble,9,25,500,800,0.5,sure,1.2784188549994724,rs
gamble,9,26,500,730,0.5,sure,1.9334835230001772,sr
gamble,9,27,500,3840,0.4,risky,1.6823450889969536,rs
gamble,9,28,500,1000,0.5,risky,1.6482990420008719,rs
gamble,9,29,500,840,0.5,sure,2.5615357459973893,sr
gamble,9,30,500,2020,0.5,risky,1.596772750999662,sr
gamble,9,31,500,970,0.3,sure,1.9189563520012598,rs
gamble,9,32,500,1120,0.3,sure,1.6839488490004442,sr
gamble,9,33,500,1250,0.4,risky,2.6917638720005925,sr
gamble,9,34,500,990,0.4,sure,1.6265772719998495,rs
gamble,9,35,500,2540,0.3,risky,1.6749319919981644,sr
gamble,9,36,500,1670,0.3,risky,3.163025977999496,rs
gamble,9,37,500,2260,0.4,risky,1.3101865159987938,sr
gamble,9,38,500,1890,0.3,risky,1.499785358999361,rs
gamble,9,39,500,1380,0.4,sure,1.8577795789969969,sr
gamble,9,40,500,1040,0.3,sure,2.9540575690007245,rs
gamble,9,41,500,1720,0.4,risky,1.7824102259983192,sr
gamble,9,42,500,1270,0.5,risky,1.5377172999978939,rs
gamble,9,43,500,830,0.4,sure,1.3180411489993276,rs
gamble,9,44,500,1340,0.3,sure,2.1796949839990702,rs
gamble,9,45,500,1570,0.5,risky,1.3741163699996832,sr
gamble,9,46,500,2180,0.3,risky,1.642488814999524,rs
gamble,9,47,500,920,0.4,sure,2.3462206649965083,rs
gamble,10,1,500,1670,0.3,sure,3.2220939069998167,sr
gamble,10,2,500,4480,0.3,risky,1.462443099000211,sr
gamble,10,3,500,2180,0.3,risky,1.9188533189999362,rs
gamble,10,4,500,3160,0.4,risky,4.244576228999904,rs
gamble,10,5,500,1220,0.3,sure,1.2927476459999525,rs
gamble,10,6,500,1270,0.5,risky,2.7314715960001195,rs
gamble,10,7,500,2650,0.4,risky,1.5525778060000448,rs
gamble,10,8,500,2340,0.5,risky,1.4920016679998298,sr
gamble,10,9,500,1170,0.5,sure,2.0266277960004118,sr
gamble,10,10,500,1250,0.4,risky,3.979215309999745,rs
gamble,10,11,500,940,0.5,sure,1.3430496070000117,rs
gamble,10,12,500,840,0.5,sure,1.4185579979998693,rs
gamble,10,13,500,730,0.5,sure,1.0599823769998693,rs
gamble,10,14,500,700,1,risky,1.6758712040000319,rs
gamble,10,15,500,7290,0.3,risky,1.5306159840001783,rs
gamble,10,16,500,1890,0.3,risky,2.0316685269999653,sr
gamble,10,17,500,920,0.4,sure,1.7613316929996472,sr
gamble,10,18,500,1120,0.3,sure,3.3083494520001295,sr
gamble,10,19,500,3010,0.3,risky,1.5953505500001484,sr
gamble,10,20,500,760,0.5,sure,2.84500097199998,rs
gamble,10,21,500,1490,0.3,risky,2.717466738999974,sr
gamble,10,22,500,1080,0.5,sure,2.2751165820000097,sr
gamble,10,23,500,1000,0.5,sure,1.257905504000064,sr
gamble,10,24,500,800,0.5,sure,1.0340887500001372,sr
gamble,10,25,500,2540,0.3,risky,1.4265290879998247,sr
gamble,10,26,500,990,0.4,sure,3.5635923749996437,rs
gamble,10,27,500,970,0.3,sure,1.6311446409999917,rs
gamble,10,28,500,870,0.4,sure,1.1996693020000748,rs
gamble,10,29,500,1960,0.4,sure,2.962360335000085,sr
gamble,10,30,500,1530,0.4,sure,2.7029146239997317,rs
gamble,10,31,500,1770,0.5,sure,2.9648104759999114,sr
gamble,10,32,500,880,0.5,sure,1.584633950999887,sr
gamble,10,33,500,1720,0.4,risky,3.4430149280001388,sr
gamble,10,34,500,2020,0.5,risky,1.372366902000067,rs
gamble,10,35,500,5650,0.3,risky,2.10348890799969,rs
gamble,10,36,500,1570,0.5,sure,2.629705074999947,sr
gamble,10,37,500,1040,0.3,sure,1.8394800930000201,rs
gamble,10,38,500,1410,0.5,sure,2.120167740999932,rs
gamble,10,39,500,1340,0.3,sure,1.8777130849998684,rs
gamble,10,40,500,830,0.4,sure,1.6607163480002782,sr
gamble,10,41,500,1150,0.4,sure,1.8518084199999976,sr
gamble,10,42,500,2260,0.4,risky,2.244074630999876,sr
gamble,10,43,500,3840,0.4,risky,1.2762357599999632,sr
gamble,10,44,500,1060,0.4,sure,1.6603377080000428,rs
gamble,10,45,500,300,1,sure,2.059489599000244,sr
gamble,10,46,500,3640,0.3,risky,2.858945699999822,sr
gamble,10,47,500,1380,0.4,risky,4.618260375999853,rs
gamble,11,1,500,760,0.5,sure,9.361956328999895,rs
gamble,11,2,500,1530,0.4,sure,4.622394725000049,rs
gamble,11,3,500,3010,0.3,sure,6.313300348000212,sr
gamble,11,4,500,880,0.5,sure,5.039414819000285,sr
gamble,11,5,500,7290,0.3,sure,4.600182690000111,sr
gamble,11,6,500,1720,0.4,sure,3.0907201690001784,rs
gamble,11,7,500,2650,0.4,sure,4.618177039000329,rs
gamble,11,8,500,2260,0.4,sure,5.555963176000205,rs
gamble,11,9,500,1770,0.5,sure,1.3689530500000728,sr
gamble,11,10,500,2180,0.3,sure,1.428251347999776,rs
gamble,11,11,500,870,0.4,sure,1.725095698000132,sr
gamble,11,12,500,1040,0.3,sure,1.4508802590003143,sr
gamble,11,13,500,2540,0.3,sure,2.8196681340000396,rs
gamble,11,14,500,1960,0.4,sure,1.4606396929998482,sr
gamble,11,15,500,1120,0.3,sure,1.292105255000024,rs
gamble,11,16,500,830,0.4,sure,1.3553153399998337,rs
gamble,11,17,500,1000,0.5,sure,2.6956482400000823,rs
gamble,11,18,500,1340,0.3,sure,2.750186697999652,rs
gamble,11,19,500,1670,0.3,sure,1.633771404000072,rs
gamble,11,20,500,800,0.5,sure,2.3070361109998885,rs
gamble,11,21,500,1150,0.4,sure,1.1612070549999771,rs
gamble,11,22,500,1570,0.5,sure,3.101613205000376,sr
gamble,11,23,500,700,1,risky,3.6035552799999095,sr
gamble,11,24,500,970,0.3,sure,5.2701558230000956,sr
gamble,11,25,500,1220,0.3,sure,2.7734381820000635,rs
gamble,11,26,500,3640,0.3,sure,3.1778063679998922,sr
gamble,11,27,500,1490,0.3,sure,3.7413551889999326,sr
gamble,11,28,500,300,1,sure,5.6418016239999815,rs
gamble,11,29,500,4480,0.3,sure,3.7381578569998055,rs
gamble,11,30,500,940,0.5,sure,3.175142555000093,sr
gamble,11,31,500,5650,0.3,sure,7.258120381000026,sr
gamble,11,32,500,3840,0.4,sure,7.162910069999725,sr
gamble,11,33,500,1080,0.5,sure,3.870430870999826,sr
gamble,11,34,500,990,0.4,sure,1.6225978160000523,rs
gamble,11,35,500,2340,0.5,sure,1.8478297360002216,rs
gamble,11,36,500,920,0.4,sure,1.5842028560000472,sr
gamble,11,37,500,1060,0.4,sure,1.2832108060001701,rs
gamble,11,38,500,840,0.5,sure,1.5063183299998855,sr
gamble,11,39,500,1380,0.4,sure,1.320378559999881,rs
gamble,11,40,500,1170,0.5,sure,2.117987768000148,rs
gamble,11,41,500,1410,0.5,sure,2.8993634440003007,rs
gamble,11,42,500,1270,0.5,sure,5.425905575999877,rs
gamble,11,43,500,1250,0.4,sure,2.011929232000057,sr
gamble,11,44,500,730,0.5,sure,1.261864873000377,rs
gamble,11,45,500,2020,0.5,sure,1.452833463999923,sr
gamble,11,46,500,1890,0.3,sure,4.24470761800012,rs
gamble,11,47,500,3160,0.4,sure,1.453461348000019,sr
gamble,12,1,500,3640,0.3,risky,6.534904643000118,sr
gamble,12,2,500,920,0.4,sure,4.724504023000009,rs
gamble,12,3,500,1410,0.5,risky,1.9628863950001687,rs
gamble,12,4,500,1150,0.4,sure,4.270120133000091,sr
gamble,12,5,500,1270,0.5,sure,3.1253827399996226,rs
gamble,12,6,500,940,0.5,sure,2.0590050440005143,sr
gamble,12,7,500,1570,0.5,risky,3.0670988889996806,rs
gamble,12,8,500,1220,0.3,sure,2.61039576299936,rs
gamble,12,9,500,7290,0.3,sure,6.33259126700068,sr
gamble,12,10,500,700,1,risky,1.730247715000587,rs
gamble,12,11,500,1380,0.4,sure,5.006439595000302,sr
gamble,12,12,500,1720,0.4,risky,4.824919139000485,sr
gamble,12,13,500,800,0.5,sure,3.2102372810004454,rs
gamble,12,14,500,3010,0.3,risky,3.1798856760005947,sr
gamble,12,15,500,300,1,sure,1.7590904879998561,rs
gamble,12,16,500,2260,0.4,sure,3.338644863000809,sr
gamble,12,17,500,1120,0.3,sure,2.263658385000781,sr
gamble,12,18,500,990,0.4,sure,3.1514630889996624,sr
gamble,12,19,500,3160,0.4,risky,5.2038673039996866,sr
gamble,12,20,500,2340,0.5,risky,2.7270361089995276,rs
gamble,12,21,500,1340,0.3,sure,3.2761848540003484,sr
gamble,12,22,500,870,0.4,sure,4.282331802000044,sr
gamble,12,23,500,1170,0.5,sure,3.8906802539995624,sr
gamble,12,24,500,3840,0.4,risky,4.392655760000707,sr
gamble,12,25,500,880,0.5,sure,2.1076828009991004,rs
gamble,12,26,500,730,0.5,sure,2.80995132299995,sr
gamble,12,27,500,970,0.3,sure,5.084838301000673,sr
gamble,12,28,500,5650,0.3,risky,3.251981366000109,sr
gamble,12,29,500,1890,0.3,sure,3.556594354000481,rs
gamble,12,30,500,1000,0.5,sure,3.2243750630004797,sr
gamble,12,31,500,1490,0.3,sure,5.385742009999376,sr
gamble,12,32,500,840,0.5,sure,1.8938125459999355,sr
gamble,12,33,500,1670,0.3,sure,2.027190107000024,sr
gamble,12,34,500,1040,0.3,sure,3.1648974709996764,rs
gamble,12,35,500,830,0.4,sure,2.6083377850000034,rs
gamble,12,36,500,1060,0.4,sure,2.3623562220000167,rs
gamble,12,37,500,2180,0.3,risky,3.614511152999512,sr
gamble,12,38,500,2540,0.3,sure,8.240400435000083,sr
gamble,12,39,500,1080,0.5,sure,1.9932485029994496,rs
gamble,12,40,500,2650,0.4,risky,4.0439935139993395,sr
gamble,12,41,500,1250,0.4,sure,2.220125161999931,sr
gamble,12,42,500,2020,0.5,risky,2.949682868000309,rs
gamble,12,43,500,4480,0.3,risky,3.2027054569998654,rs
gamble,12,44,500,1960,0.4,risky,5.940715806999833,sr
gamble,12,45,500,1530,0.4,sure,1.9778849770000306,sr
gamble,12,46,500,1770,0.5,risky,3.453250993000438,rs
gamble,12,47,500,760,0.5,sure,1.9571870700001455,sr
gamble,13,1,500,830,0.4,risky,3.6619370050002544,sr
gamble,13,2,500,2340,0.5,risky,4.958709232999354,sr
gamble,13,3,500,840,0.5,sure,1.962796807999439,sr
gamble,13,4,500,2020,0.5,risky,4.28584735000004,sr
gamble,13,5,500,3010,0.3,sure,2.4215107059999355,sr
gamble,13,6,500,1080,0.5,sure,2.5357377199998155,sr
gamble,13,7,500,1040,0.3,sure,1.7638348549999137,rs
gamble,13,8,500,1380,0.4,sure,3.9521012170007452,rs
gamble,13,9,500,700,1,risky,1.5561163679994934,rs
gamble,13,10,500,1960,0.4,risky,5.368352132999462,sr
gamble,13,11,500,800,0.5,sure,1.7166368990001502,rs
gamble,13,12,500,2650,0.4,risky,2.3697743079992506,rs
gamble,13,13,500,940,0.5,sure,1.5250264639998932,rs
gamble,13,14,500,1220,0.3,sure,2.042151069999818,sr
gamble,13,15,500,1410,0.5,risky,5.562942135999947,rs
gamble,13,16,500,2260,0.4,risky,2.5590126189999864,rs
gamble,13,17,500,1170,0.5,risky,4.570547084999816,sr
gamble,13,18,500,1670,0.3,sure,2.118539768000119,sr
gamble,13,19,500,2180,0.3,sure,4.740045163000104,sr
gamble,13,20,500,5650,0.3,risky,2.521103619999849,sr
gamble,13,21,500,1720,0.4,risky,2.2158197329999894,rs
gamble,13,22,500,990,0.4,sure,1.9686348999994152,sr
gamble,13,23,500,300,1,sure,1.68500749299983,sr
gamble,13,24,500,880,0.5,risky,5.235365360999822,sr
gamble,13,25,500,870,0.4,sure,2.181608779999806,sr
gamble,13,26,500,2540,0.3,risky,3.4396583329998975,sr
gamble,13,27,500,1250,0.4,sure,5.016584073000558,rs
gamble,13,28,500,4480,0.3,risky,2.098804285999904,sr
gamble,13,29,500,730,0.5,sure,1.969341961000282,rs
gamble,13,30,500,7290,0.3,risky,2.964896332000535,sr
gamble,13,31,500,760,0.5,sure,2.992269737999777,sr
gamble,13,32,500,1570,0.5,risky,1.7392046019995178,sr
gamble,13,33,500,970,0.3,sure,3.2552670909999506,sr
gamble,13,34,500,1770,0.5,risky,2.02407335999942,sr
gamble,13,35,500,3640,0.3,risky,2.794291078999777,sr
gamble,13,36,500,1000,0.5,sure,4.556195557999672,rs
gamble,13,37,500,1490,0.3,sure,2.920705325000199,rs
gamble,13,38,500,1270,0.5,risky,3.20656391600005,sr
gamble,13,39,500,1120,0.3,sure,1.7690440610003861,sr
gamble,13,40,500,1060,0.4,risky,5.060521728999447,sr
gamble,13,41,500,1890,0.3,risky,3.3394531850008207,rs
gamble,13,42,500,1340,0.3,sure,1.9615903909998451,sr
gamble,13,43,500,920,0.4,sure,2.4454098349997366,sr
gamble,13,44,500,1150,0.4,sure,2.7172231419990567,rs
gamble,13,45,500,3160,0.4,risky,1.3467312929988111,sr
gamble,13,46,500,1530,0.4,sure,4.223146059999635,rs
gamble,13,47,500,3840,0.4,risky,1.3369730039994465,sr
gamble,14,1,500,1490,0.3,sure,1.5630662600015057,sr
gamble,14,2,500,1530,0.4,risky,1.5186997079999855,sr
gamble,14,3,500,300,1,sure,1.315859131000252,rs
gamble,14,4,500,1960,0.4,risky,2.2415427260002616,rs
gamble,14,5,500,1120,0.3,sure,1.7859218300000066,sr
gamble,14,6,500,2180,0.3,risky,1.4609772240000893,rs
gamble,14,7,500,2650,0.4,risky,1.5641007169997465,rs
gamble,14,8,500,1270,0.5,risky,1.7917567330005113,sr
gamble,14,9,500,1150,0.4,risky,5.947188026000731,sr
gamble,14,10,500,730,0.5,sure,2.175679167999988,rs
gamble,14,11,500,1080,0.5,risky,2.810144498000227,sr
gamble,14,12,500,1060,0.4,sure,3.0198197070003516,rs
gamble,14,13,500,3840,0.4,sure,3.2539459020008508,rs
gamble,14,14,500,1890,0.3,sure,5.174328469998727,sr
gamble,14,15,500,5650,0.3,risky,1.753529786999934,sr
gamble,14,16,500,870,0.4,sure,2.21430975200019,rs
gamble,14,17,500,760,0.5,sure,2.5419323820005957,rs
gamble,14,18,500,2020,0.5,risky,2.8110654659994907,rs
gamble,14,19,500,4480,0.3,risky,5.933810431000893,rs
gamble,14,20,500,2540,0.3,sure,1.5551865460001864,rs
gamble,14,21,500,3010,0.3,sure,1.1753316129997984,rs
gamble,14,22,500,830,0.4,sure,2.9390054149989737,rs
gamble,14,23,500,1040,0.3,sure,4.376336477998848,rs
gamble,14,24,500,970,0.3,sure,2.266682884999682,sr
gamble,14,25,500,840,0.5,sure,3.8431092139999237,rs
gamble,14,26,500,880,0.5,sure,1.8027602170004684,rs
gamble,14,27,500,7290,0.3,risky,2.4533691110009386,rs
gamble,14,28,500,700,1,risky,1.893457584999851,sr
gamble,14,29,500,3640,0.3,sure,4.012719833001029,sr
gamble,14,30,500,1220,0.3,risky,1.629875124001046,rs
gamble,14,31,500,1770,0.5,risky,2.2383936109999922,rs
gamble,14,32,500,920,0.4,sure,2.840095077999649,sr
gamble,14,33,500,2260,0.4,risky,3.593235831000129,rs
gamble,14,34,500,990,0.4,sure,1.243369709000035,sr
gamble,14,35,500,1170,0.5,risky,2.3640287700000044,sr
gamble,14,36,500,1250,0.4,risky,2.287208952000583,sr
gamble,14,37,500,1340,0.3,sure,1.6702464950012654,sr
gamble,14,38,500,3160,0.4,risky,2.262654076999752,sr
gamble,14,39,500,1000,0.5,sure,2.125011070000255,rs
gamble,14,40,500,1720,0.4,sure,4.283196612999745,sr
gamble,14,41,500,940,0.5,sure,1.7299461049988167,sr
gamble,14,42,500,1410,0.5,risky,3.9503880180000124,rs
gamble,14,43,500,1670,0.3,sure,1.955669887998738,sr
gamble,14,44,500,800,0.5,sure,1.559865187999094,sr
gamble,14,45,500,1380,0.4,sure,4.2358605959998386,sr
gamble,14,46,500,1570,0.5,risky,1.5729671080007392,sr
gamble,14,47,500,2340,0.5,risky,1.3362452649998886,rs
gamble,15,1,500,1120,0.3,risky,2.794910696000443,rs
gamble,15,2,500,5650,0.3,risky,2.924418345999584,sr
gamble,15,3,500,1150,0.4,risky,2.79442768500121,rs
gamble,15,4,500,4480,0.3,risky,1.7567265320012666,sr
gamble,15,5,500,1270,0.5,risky,2.536667205999038,rs
gamble,15,6,500,3840,0.4,risky,1.4463927729993884,rs
gamble,15,7,500,940,0.5,risky,4.366630118000103,sr
gamble,15,8,500,1720,0.4,risky,2.4182894759997,sr
gamble,15,9,500,3160,0.4,risky,1.4443218790001993,rs
gamble,15,10,500,1960,0.4,risky,1.675295172000915,rs
gamble,15,11,500,2340,0.5,risky,1.0350589540012152,rs
gamble,15,12,500,1060,0.4,risky,2.100069056999928,rs
gamble,15,13,500,800,0.5,risky,1.218596073000299,sr
gamble,15,14,500,1000,0.5,risky,0.9477745889998914,rs
gamble,15,15,500,970,0.3,sure,3.1676816400013195,rs
gamble,15,16,500,2260,0.4,risky,1.9709954330010078,sr
gamble,15,17,500,1410,0.5,risky,1.5592469639996125,rs
gamble,15,18,500,3640,0.3,risky,2.379854606000663,rs
gamble,15,19,500,760,0.5,risky,2.142456834000768,sr
gamble,15,20,500,880,0.5,risky,3.114776278000136,sr
gamble,15,21,500,1530,0.4,risky,1.7918783790009911,rs
gamble,15,22,500,2180,0.3,risky,1.322870205000072,sr
gamble,15,23,500,730,0.5,sure,2.232184624999718,sr
gamble,15,24,500,1380,0.4,risky,1.457218505000128,sr
gamble,15,25,500,1250,0.4,risky,1.0651404509990243,rs
gamble,15,26,500,1890,0.3,risky,1.2017602050000278,rs
gamble,15,27,500,700,1,risky,2.323018260000026,rs
gamble,15,28,500,1220,0.3,sure,1.8018773139992845,rs
gamble,15,29,500,2020,0.5,risky,2.3719782089992805,sr
gamble,15,30,500,1490,0.3,sure,2.1030909569999494,rs
gamble,15,31,500,300,1,sure,1.9899328949995834,rs
gamble,15,32,500,1340,0.3,sure,2.0724108269987482,sr
gamble,15,33,500,1570,0.5,risky,2.104387980998581,rs
gamble,15,34,500,990,0.4,risky,3.2064637530002074,sr
gamble,15,35,500,2650,0.4,risky,1.368597946000591,rs
gamble,15,36,500,1040,0.3,sure,1.3162367610002548,rs
gamble,15,37,500,920,0.4,risky,2.8500530250003067,sr
gamble,15,38,500,1770,0.5,risky,0.9456003350005631,rs
gamble,15,39,500,870,0.4,risky,1.4544575269992492,sr
gamble,15,40,500,1170,0.5,risky,1.1909598729998834,sr
gamble,15,41,500,3010,0.3,sure,1.418042681998486,rs
gamble,15,42,500,830,0.4,sure,3.6516330979993654,rs
gamble,15,43,500,7290,0.3,risky,2.723383124000975,sr
gamble,15,44,500,1080,0.5,sure,3.0820694839985663,rs
gamble,15,45,500,1670,0.3,risky,2.688199522999639,rs
gamble,15,46,500,840,0.5,sure,1.1113942470001348,rs
gamble,15,47,500,2540,0.3,risky,1.1166793720003625,rs
gamble,16,1,500,2260,0.4,risky,3.1954930769970815,rs
gamble,16,2,500,2340,0.5,risky,3.133670669001731,rs
gamble,16,3,500,1770,0.5,risky,1.8749471619994438,rs
gamble,16,4,500,970,0.3,sure,2.4902582739996433,rs
gamble,16,5,500,1080,0.5,sure,3.561472989000322,rs
gamble,16,6,500,1670,0.3,sure,4.317960603002575,sr
gamble,16,7,500,1490,0.3,sure,2.931308197999897,rs
gamble,16,8,500,3160,0.4,risky,3.984957332002523,sr
gamble,16,9,500,1340,0.3,sure,4.228163592000783,rs
gamble,16,10,500,870,0.4,sure,5.596907578998071,sr
gamble,16,11,500,760,0.5,sure,2.256125866999355,sr
gamble,16,12,500,990,0.4,sure,6.471868505999737,rs
gamble,16,13,500,1270,0.5,risky,2.984425815000577,rs
gamble,16,14,500,2540,0.3,risky,3.747244934998889,rs
gamble,16,15,500,1530,0.4,risky,6.143785591000778,rs
gamble,16,16,500,2180,0.3,risky,2.8132197720005934,sr
gamble,16,17,500,1060,0.4,sure,2.8299182899972948,rs
gamble,16,18,500,2020,0.5,risky,2.1908164309970743,rs
gamble,16,19,500,4480,0.3,risky,5.114238114001637,rs
gamble,16,20,500,3010,0.3,risky,3.9843340730003547,sr
gamble,16,21,500,2650,0.4,risky,3.7801880719998735,rs
gamble,16,22,500,1890,0.3,sure,2.495139406000817,rs
gamble,16,23,500,1720,0.4,risky,8.092783760999737,sr
gamble,16,24,500,1220,0.3,sure,2.9877710929977184,sr
gamble,16,25,500,700,1,risky,2.1672785980008484,sr
gamble,16,26,500,5650,0.3,risky,4.882377048001217,rs
gamble,16,27,500,1410,0.5,risky,1.9054674969993357,rs
gamble,16,28,500,1150,0.4,risky,6.68047479300003,rs
gamble,16,29,500,1170,0.5,sure,5.711150084996916,sr
gamble,16,30,500,800,0.5,sure,1.9816609890003747,sr
gamble,16,31,500,880,0.5,sure,2.1283065829993575,rs
gamble,16,32,500,920,0.4,sure,2.5103942610003287,rs
gamble,16,33,500,7290,0.3,risky,2.251601371997822,rs
gamble,16,34,500,300,1,sure,1.6999285230012902,rs
gamble,16,35,500,3640,0.3,sure,4.002884517001803,rs
gamble,16,36,500,1000,0.5,risky,2.260319614000764,sr
gamble,16,37,500,840,0.5,sure,7.243945442001859,rs
gamble,16,38,500,730,0.5,sure,1.2766232460016909,rs
gamble,16,39,500,1250,0.4,risky,6.395463304997975,sr
gamble,16,40,500,1380,0.4,risky,3.2141674529993907,sr
gamble,16,41,500,940,0.5,sure,3.552433831999224,rs
gamble,16,42,500,1960,0.4,risky,5.093036067002686,rs
gamble,16,43,500,1040,0.3,sure,5.25946335000117,rs
gamble,16,44,500,1120,0.3,sure,2.0116735429983237,rs
gamble,16,45,500,830,0.4,sure,1.4201992429989332,rs
gamble,16,46,500,1570,0.5,risky,2.1340875280002365,sr
gamble,16,47,500,3840,0.4,risky,3.747241514000052,sr
gamble,17,1,500,1080,0.5,risky,7.950601219003147,sr
gamble,17,2,500,1410,0.5,risky,4.06854056299926,sr
gamble,17,3,500,1530,0.4,risky,7.939859981001064,sr
gamble,17,4,500,970,0.3,sure,4.281937747000484,sr
gamble,17,5,500,1570,0.5,risky,2.337407479000831,rs
gamble,17,6,500,2540,0.3,risky,2.261398377002479,sr
gamble,17,7,500,1720,0.4,risky,17.43784172300002,sr
gamble,17,8,500,730,0.5,sure,3.5282086019979033,rs
gamble,17,9,500,1270,0.5,risky,4.204579318000469,rs
gamble,17,10,500,920,0.4,sure,5.752151640001102,rs
gamble,17,11,500,1340,0.3,sure,3.717161707998457,rs
gamble,17,12,500,2180,0.3,risky,2.80224559799899,sr
gamble,17,13,500,760,0.5,sure,2.5970418400029303,rs
gamble,17,14,500,1250,0.4,sure,5.51943851499891,sr
gamble,17,15,500,1120,0.3,sure,4.34109560700017,sr
gamble,17,16,500,2650,0.4,risky,2.986012153000047,rs
gamble,17,17,500,870,0.4,sure,6.821054138003092,rs
gamble,17,18,500,940,0.5,sure,1.6709917430016503,sr
gamble,17,19,500,1490,0.3,sure,5.6552859590010485,rs
gamble,17,20,500,1170,0.5,risky,2.7114673819996824,sr
gamble,17,21,500,5650,0.3,risky,2.236748475999775,sr
gamble,17,22,500,1000,0.5,sure,2.0375480339971546,sr
gamble,17,23,500,1770,0.5,risky,1.8310328509978717,rs
gamble,17,24,500,3640,0.3,risky,1.7758753200032515,sr
gamble,17,25,500,990,0.4,sure,2.651136423002754,rs
gamble,17,26,500,1220,0.3,sure,3.252283650002937,sr
gamble,17,27,500,3840,0.4,risky,2.291477651997411,rs
gamble,17,28,500,1890,0.3,risky,2.634806869999011,sr
gamble,17,29,500,300,1,sure,1.7958477290012524,sr
gamble,17,30,500,880,0.5,sure,1.4058858700009296,rs
gamble,17,31,500,2260,0.4,risky,1.9602707859994553,rs
gamble,17,32,500,7290,0.3,risky,1.7714504989999114,rs
gamble,17,33,500,830,0.4,sure,1.895620606999728,rs
gamble,17,34,500,840,0.5,sure,1.3092679269975633,sr
gamble,17,35,500,3010,0.3,risky,2.0906851630024903,sr
gamble,17,36,500,1380,0.4,risky,3.353248234001512,rs
gamble,17,37,500,1960,0.4,risky,1.1101970710005844,rs
gamble,17,38,500,1040,0.3,sure,1.59581976499976,sr
gamble,17,39,500,700,1,risky,3.086106580001797,sr
gamble,17,40,500,3160,0.4,risky,1.6208024669977021,rs
gamble,17,41,500,1060,0.4,sure,1.783004216998961,sr
gamble,17,42,500,2340,0.5,risky,1.969378740999673,sr
gamble,17,43,500,800,0.5,sure,1.7653573280003911,rs
gamble,17,44,500,1150,0.4,sure,3.7452806910005165,sr
gamble,17,45,500,2020,0.5,risky,1.3412584379984764,sr
gamble,17,46,500,1670,0.3,risky,1.9299346599982528,sr
gamble,17,47,500,4480,0.3,risky,2.1903325810017122,rs
gamble,18,1,500,840,0.5,risky,7.470427797001321,rs
gamble,18,2,500,300,1,sure,2.4068912000002456,sr
gamble,18,3,500,1670,0.3,sure,2.5529862420007703,sr
gamble,18,4,500,1170,0.5,risky,1.5089146870013792,sr
gamble,18,5,500,730,0.5,risky,3.851287222998508,rs
gamble,18,6,500,2340,0.5,risky,2.4195464510012243,rs
gamble,18,7,500,1270,0.5,risky,3.700579790001939,sr
gamble,18,8,500,1960,0.4,sure,3.235161848999269,sr
gamble,18,9,500,1150,0.4,sure,2.94911379900077,rs
gamble,18,10,500,3840,0.4,risky,4.337398741998186,rs
gamble,18,11,500,4480,0.3,risky,1.8148190590000013,sr
gamble,18,12,500,1380,0.4,risky,4.223551466999197,rs
gamble,18,13,500,7290,0.3,risky,1.2583565409986477,rs
gamble,18,14,500,940,0.5,sure,1.9148036170008709,sr
gamble,18,15,500,1250,0.4,sure,4.2555327150002995,rs
gamble,18,16,500,3010,0.3,sure,2.6158814359987446,sr
gamble,18,17,500,1000,0.5,sure,6.6108128749983734,rs
gamble,18,18,500,1340,0.3,sure,1.9156462849969103,rs
gamble,18,19,500,1490,0.3,sure,1.7304631369988783,sr
gamble,18,20,500,760,0.5,sure,1.8222572569975455,rs
gamble,18,21,500,1720,0.4,sure,3.3844499869992433,sr
gamble,18,22,500,5650,0.3,risky,3.172044894999999,rs
gamble,18,23,500,1410,0.5,sure,1.5275910570017004,rs
gamble,18,24,500,3160,0.4,risky,1.6277881960013474,rs
gamble,18,25,500,1530,0.4,sure,4.029061053999612,rs
gamble,18,26,500,870,0.4,sure,2.6378936619985325,rs
gamble,18,27,500,1770,0.5,sure,4.295549423997727,sr
gamble,18,28,500,990,0.4,sure,1.7265670769993449,sr
gamble,18,29,500,3640,0.3,sure,2.0105512519985496,rs
gamble,18,30,500,2180,0.3,risky,3.003709262000484,rs
gamble,18,31,500,2020,0.5,risky,2.0542411540009198,sr
gamble,18,32,500,2540,0.3,sure,1.2865144520001195,rs
gamble,18,33,500,700,1,risky,2.789716078998026,rs
gamble,18,34,500,1120,0.3,sure,1.9933948500001861,sr
gamble,18,35,500,1080,0.5,sure,1.5304159189981874,rs
gamble,18,36,500,2260,0.4,risky,2.7836603059986373,sr
gamble,18,37,500,1570,0.5,sure,2.403068932999304,sr
gamble,18,38,500,1040,0.3,sure,4.5332883359988045,sr
gamble,18,39,500,2650,0.4,risky,3.330420549998962,sr
gamble,18,40,500,800,0.5,sure,2.2399391189974267,rs
gamble,18,41,500,830,0.4,sure,1.8165711910005484,sr
gamble,18,42,500,1060,0.4,sure,1.7949324809997051,sr
gamble,18,43,500,1890,0.3,sure,2.5080356280013802,sr
gamble,18,44,500,920,0.4,sure,1.722474181002326,sr
gamble,18,45,500,880,0.5,sure,2.487063628999749,rs
gamble,18,46,500,1220,0.3,sure,0.9505227730005572,sr
gamble,18,47,500,970,0.3,sure,1.3793864419967576,rs
gamble,19,1,500,1890,0.3,risky,6.109262634000061,sr
gamble,19,2,500,1060,0.4,sure,5.116126730000133,rs
gamble,19,3,500,1150,0.4,sure,3.93713892400001,rs
gamble,19,4,500,1080,0.5,sure,6.038597631999892,sr
gamble,19,5,500,1250,0.4,sure,2.535369520999893,rs
gamble,19,6,500,2650,0.4,risky,2.100899823999953,rs
gamble,19,7,500,3840,0.4,risky,2.196018037000158,sr
gamble,19,8,500,970,0.3,sure,3.1974281049999718,rs
gamble,19,9,500,1220,0.3,sure,2.8160000469999886,sr
gamble,19,10,500,1410,0.5,risky,6.450158100999943,sr
gamble,19,11,500,1960,0.4,risky,3.1071421680001095,sr
gamble,19,12,500,1000,0.5,sure,4.856781206000051,sr
gamble,19,13,500,4480,0.3,risky,2.1376942350000263,rs
gamble,19,14,500,2540,0.3,risky,2.887455098000146,rs
gamble,19,15,500,2260,0.4,risky,2.4369893980001507,rs
gamble,19,16,500,1770,0.5,risky,4.294803319000039,sr
gamble,19,17,500,760,0.5,sure,2.7659411380000165,sr
gamble,19,18,500,1720,0.4,risky,4.496583992000069,sr
gamble,19,19,500,1340,0.3,sure,2.1439463919998616,rs
gamble,19,20,500,3160,0.4,risky,4.6041830019999,rs
gamble,19,21,500,1120,0.3,sure,1.5104997759999605,rs
gamble,19,22,500,1040,0.3,sure,1.6285668620000706,sr
gamble,19,23,500,7290,0.3,risky,1.7409796959998403,sr
gamble,19,24,500,730,0.5,sure,2.8909200599998712,sr
gamble,19,25,500,990,0.4,sure,2.376810602999967,sr
gamble,19,26,500,800,0.5,sure,1.9958886150000126,rs
gamble,19,27,500,3010,0.3,risky,1.6144972070001131,sr
gamble,19,28,500,1380,0.4,sure,3.1196652479998193,sr
gamble,19,29,500,700,1,risky,2.453835116999926,sr
gamble,19,30,500,870,0.4,sure,1.926705175000052,sr
gamble,19,31,500,830,0.4,sure,3.1155640819999917,rs
gamble,19,32,500,840,0.5,sure,1.3934677869999632,sr
gamble,19,33,500,1270,0.5,risky,2.9225178110000343,rs
gamble,19,34,500,2180,0.3,risky,1.7205890119998912,sr
gamble,19,35,500,1530,0.4,risky,6.262141977000056,rs
gamble,19,36,500,2020,0.5,risky,2.911022313999865,rs
gamble,19,37,500,5650,0.3,risky,1.3246497100001307,rs
gamble,19,38,500,1570,0.5,sure,1.5137799619999441,sr
gamble,19,39,500,880,0.5,sure,3.087569983000094,rs
gamble,19,40,500,920,0.4,sure,1.8311708149999504,rs
gamble,19,41,500,1490,0.3,sure,9.119525500000009,sr
gamble,19,42,500,1170,0.5,sure,3.829854917000148,rs
gamble,19,43,500,3640,0.3,risky,2.063984666999886,rs
gamble,19,44,500,1670,0.3,sure,1.3109714009999607,rs
gamble,19,45,500,940,0.5,sure,2.6049682729999404,rs
gamble,19,46,500,2340,0.5,risky,1.670839178000051,sr
gamble,19,47,500,300,1,sure,1.6867638470000657,rs
gamble,20,1,500,1960,0.4,risky,2.6327535479995277,sr
gamble,20,2,500,4480,0.3,risky,4.43356184699951,rs
gamble,20,3,500,920,0.4,risky,3.9074687539996376,rs
gamble,20,4,500,870,0.4,risky,3.3535409599999184,sr
gamble,20,5,500,940,0.5,risky,1.894298956000057,rs
gamble,20,6,500,5650,0.3,risky,2.8760348660007367,rs
gamble,20,7,500,1530,0.4,risky,1.675862627999777,rs
gamble,20,8,500,1080,0.5,sure,1.1795894440001575,sr
gamble,20,9,500,840,0.5,risky,4.525736400999449,rs
gamble,20,10,500,1060,0.4,risky,1.851271686000473,sr
gamble,20,11,500,1250,0.4,risky,3.827743651999299,sr
gamble,20,12,500,730,0.5,risky,1.244681053000022,sr
gamble,20,13,500,990,0.4,risky,1.4365155929999673,sr
gamble,20,14,500,2540,0.3,risky,3.5901854180001465,rs
gamble,20,15,500,2180,0.3,risky,1.2405455009993602,rs
gamble,20,16,500,1340,0.3,risky,2.9061677509998844,rs
gamble,20,17,500,1270,0.5,risky,1.4799968580000495,rs
gamble,20,18,500,1040,0.3,risky,4.591518399000051,rs
gamble,20,19,500,3160,0.4,risky,1.7065051979998316,rs
gamble,20,20,500,1890,0.3,risky,1.3193685080004798,sr
gamble,20,21,500,2340,0.5,risky,1.093792468999709,rs
gamble,20,22,500,1490,0.3,risky,1.2604654410006333,rs
gamble,20,23,500,1120,0.3,risky,1.8669261510003707,sr
gamble,20,24,500,700,1,risky,2.2272483130000182,rs
gamble,20,25,500,1770,0.5,risky,2.8755312350003805,rs
gamble,20,26,500,830,0.4,risky,1.2433892270000797,rs
gamble,20,27,500,1720,0.4,risky,1.1159721879994322,sr
gamble,20,28,500,300,1,sure,1.7610845139997764,rs
gamble,20,29,500,3010,0.3,risky,3.308359195999401,rs
gamble,20,30,500,1000,0.5,risky,1.5941928709999047,sr
gamble,20,31,500,2260,0.4,risky,2.1738219620001473,sr
gamble,20,32,500,3840,0.4,risky,1.561022781000247,sr
gamble,20,33,500,2020,0.5,risky,1.2441014830001222,sr
gamble,20,34,500,3640,0.3,risky,3.740849460999925,sr
gamble,20,35,500,760,0.5,sure,3.721651447000113,sr
gamble,20,36,500,1170,0.5,risky,2.4393681909996303,rs
gamble,20,37,500,1670,0.3,risky,1.4971223290003763,sr
gamble,20,38,500,1150,0.4,risky,1.5987994199995228,rs
gamble,20,39,500,1570,0.5,risky,1.8258745969997108,sr
gamble,20,40,500,1220,0.3,sure,3.8499603719992592,sr
gamble,20,41,500,970,0.3,sure,1.7950124459994186,rs
gamble,20,42,500,7290,0.3,risky,1.804678409999724,sr
gamble,20,43,500,2650,0.4,risky,3.046870508000211,sr
gamble,20,44,500,1380,0.4,risky,6.4793895280008655,rs
gamble,20,45,500,880,0.5,sure,4.7344435580007485,rs
gamble,20,46,500,800,0.5,sure,1.38074312200024,rs
gamble,20,47,500,1410,0.5,risky,2.6073029399994994,sr
gamble,21,1,500,800,0.5,sure,2.553499754000768,sr
gamble,21,2,500,1040,0.3,sure,4.134040943999935,rs
gamble,21,3,500,990,0.4,risky,4.563330812999993,sr
gamble,21,4,500,5650,0.3,risky,2.702664643999924,rs
gamble,21,5,500,1410,0.5,risky,1.7332299920008154,sr
gamble,21,6,500,840,0.5,sure,3.714152534999812,rs
gamble,21,7,500,1770,0.5,risky,2.0804040310003984,rs
gamble,21,8,500,1960,0.4,risky,4.126211585999954,rs
gamble,21,9,500,2340,0.5,risky,1.2281665230002545,rs
gamble,21,10,500,300,1,sure,1.581082513000183,sr
gamble,21,11,500,1080,0.5,sure,2.7039652910007135,rs
gamble,21,12,500,2180,0.3,risky,3.3029223870007627,rs
gamble,21,13,500,1060,0.4,sure,1.8126938530003827,rs
gamble,21,14,500,1170,0.5,sure,2.1750889949998964,rs
gamble,21,15,500,1380,0.4,risky,5.67370821699933,rs
gamble,21,16,500,1670,0.3,sure,5.337356085000465,rs
gamble,21,17,500,3160,0.4,risky,4.006667583000308,rs
gamble,21,18,500,7290,0.3,risky,1.7845141089992467,sr
gamble,21,19,500,760,0.5,sure,1.7001443879998988,rs
gamble,21,20,500,1000,0.5,sure,2.209916294999857,rs
gamble,21,21,500,880,0.5,risky,0.012216375999742013,sr
gamble,21,22,500,3010,0.3,risky,4.861059654999735,rs
gamble,21,23,500,1340,0.3,sure,3.404815643000802,sr
gamble,21,24,500,3640,0.3,risky,2.182965920999777,rs
gamble,21,25,500,870,0.4,sure,4.466692251000495,rs
gamble,21,26,500,1890,0.3,risky,4.210462713000197,rs
gamble,21,27,500,4480,0.3,risky,1.292541519000224,rs
gamble,21,28,500,2540,0.3,risky,1.4342253229997368,sr
gamble,21,29,500,700,1,risky,1.8751667959995757,rs
gamble,21,30,500,1720,0.4,risky,4.667605915999957,sr
gamble,21,31,500,920,0.4,sure,4.546667420000631,sr
gamble,21,32,500,1490,0.3,sure,4.607101987000533,sr
gamble,21,33,500,1530,0.4,sure,5.09876733999954,sr
gamble,21,34,500,1570,0.5,risky,2.864504621999913,rs
gamble,21,35,500,3840,0.4,risky,1.4408960920000027,rs
gamble,21,36,500,940,0.5,sure,1.5298303829995348,rs
gamble,21,37,500,2650,0.4,risky,1.901663126999665,rs
gamble,21,38,500,970,0.3,sure,2.1968081639997763,rs
gamble,21,39,500,1150,0.4,sure,2.2710853169992333,sr
gamble,21,40,500,1120,0.3,sure,1.7018986139992194,sr
gamble,21,41,500,2020,0.5,risky,2.181178846999501,sr
gamble,21,42,500,1250,0.4,sure,8.112226531000488,rs
gamble,21,43,500,730,0.5,sure,1.1505882080000447,sr
gamble,21,44,500,2260,0.4,risky,2.354578715000571,rs
gamble,21,45,500,1270,0.5,sure,2.3591610909998053,rs
gamble,21,46,500,1220,0.3,sure,1.8346895240001686,sr
gamble,21,47,500,830,0.4,sure,1.1549703040000168,rs
gamble,22,1,500,2540,0.3,risky,5.21032046000073,rs
gamble,22,2,500,1150,0.4,sure,7.805152630000521,sr
gamble,22,3,500,1670,0.3,risky,8.216428577001352,rs
gamble,22,4,500,800,0.5,sure,2.9308252920000086,rs
gamble,22,5,500,1120,0.3,sure,2.415971690999868,rs
gamble,22,6,500,970,0.3,sure,2.2730885459986894,sr
gamble,22,7,500,300,1,sure,2.5207753510003386,sr
gamble,22,8,500,1570,0.5,risky,1.8937964390006528,sr
gamble,22,9,500,920,0.4,risky,6.477412391001053,sr
gamble,22,10,500,730,0.5,sure,1.6435284899998805,rs
gamble,22,11,500,5650,0.3,risky,3.932181561998732,sr
gamble,22,12,500,2650,0.4,risky,3.202008501000819,rs
gamble,22,13,500,1220,0.3,sure,3.9087963740003033,rs
gamble,22,14,500,990,0.4,sure,2.1705936639991705,rs
gamble,22,15,500,1340,0.3,sure,4.101822876000369,rs
gamble,22,16,500,1410,0.5,risky,4.356718205999641,rs
gamble,22,17,500,3640,0.3,risky,4.712303628000882,sr
gamble,22,18,500,830,0.4,sure,3.2311442860009265,sr
gamble,22,19,500,1060,0.4,sure,4.19238658300128,rs
gamble,22,20,500,1380,0.4,risky,2.297970247000194,sr
gamble,22,21,500,1530,0.4,risky,3.393643200999577,rs
gamble,22,22,500,880,0.5,sure,3.0987624600002164,sr
gamble,22,23,500,700,1,risky,2.177279475999967,rs
gamble,22,24,500,1040,0.3,sure,3.1970007449999684,sr
gamble,22,25,500,760,0.5,sure,4.126882798000224,rs
gamble,22,26,500,2340,0.5,risky,2.1090567789997294,rs
gamble,22,27,500,3160,0.4,risky,2.6178080619993125,rs
gamble,22,28,500,2020,0.5,risky,1.4913881559987203,rs
gamble,22,29,500,870,0.4,sure,4.746807924000677,sr
gamble,22,30,500,1720,0.4,risky,6.9748912880004355,rs
gamble,22,31,500,1960,0.4,risky,2.2826937529989664,sr
gamble,22,32,500,940,0.5,sure,3.4421222419987316,sr
gamble,22,33,500,1080,0.5,sure,4.426134805000402,sr
gamble,22,34,500,3840,0.4,risky,3.002972182001031,rs
gamble,22,35,500,1000,0.5,risky,5.574408002999917,sr
gamble,22,36,500,1250,0.4,sure,3.176680036000107,sr
gamble,22,37,500,4480,0.3,risky,1.868873696999799,rs
gamble,22,38,500,1490,0.3,sure,2.3885167589996854,rs
gamble,22,39,500,3010,0.3,risky,4.43910037599926,rs
gamble,22,40,500,1270,0.5,risky,3.33563833900007,rs
gamble,22,41,500,7290,0.3,risky,2.293058140001449,sr
gamble,22,42,500,2260,0.4,risky,5.227498620000915,rs
gamble,22,43,500,1890,0.3,sure,1.868662085998949,rs
gamble,22,44,500,1770,0.5,risky,2.8365507620001154,sr
gamble,22,45,500,1170,0.5,sure,1.6539347909983917,sr
gamble,22,46,500,2180,0.3,risky,5.510768190999443,sr
gamble,22,47,500,840,0.5,sure,1.6761194489990885,sr
gamble,23,1,500,1490,0.3,sure,3.918519232000108,sr
gamble,23,2,500,1530,0.4,risky,4.261051248999138,rs
gamble,23,3,500,1770,0.5,risky,3.1330457980002393,sr
gamble,23,4,500,880,0.5,sure,2.561012769001536,rs
gamble,23,5,500,5650,0.3,risky,2.2208534559995314,rs
gamble,23,6,500,1380,0.4,risky,3.3829773620000196,rs
gamble,23,7,500,1410,0.5,risky,1.4411456270008784,sr
gamble,23,8,500,1270,0.5,risky,1.4983687209987693,sr
gamble,23,9,500,2020,0.5,risky,1.392268163001063,sr
gamble,23,10,500,3640,0.3,risky,1.6262556749989017,rs
gamble,23,11,500,1670,0.3,risky,3.40395524700034,rs
gamble,23,12,500,1220,0.3,sure,1.76628432400139,sr
gamble,23,13,500,1250,0.4,sure,1.5701562949998333,sr
gamble,23,14,500,3840,0.4,sure,1.8133518949998688,sr
gamble,23,15,500,2180,0.3,risky,3.599670629000684,sr
gamble,23,16,500,1150,0.4,sure,4.336947597001199,rs
gamble,23,17,500,2260,0.4,risky,1.9265807980009413,sr
gamble,23,18,500,1960,0.4,risky,1.8190534780005692,rs
gamble,23,19,500,760,0.5,sure,1.5569743100004416,rs
gamble,23,20,500,1080,0.5,risky,1.736876647999452,rs
gamble,23,21,500,1000,0.5,sure,1.5105785160012601,sr
gamble,23,22,500,3010,0.3,risky,2.0919956529996853,sr
gamble,23,23,500,1060,0.4,sure,1.7221430119989236,sr
gamble,23,24,500,1040,0.3,sure,2.0722317970012227,rs
gamble,23,25,500,1170,0.5,risky,1.5277836229997774,sr
gamble,23,26,500,920,0.4,sure,2.908696192000207,rs
gamble,23,27,500,1340,0.3,sure,5.211487463000594,rs
gamble,23,28,500,7290,0.3,risky,1.6763696519992664,sr
gamble,23,29,500,800,0.5,sure,1.516070736999609,rs
gamble,23,30,500,730,0.5,sure,2.3689198459996987,sr
gamble,23,31,500,1890,0.3,risky,2.0208209329994133,rs
gamble,23,32,500,970,0.3,sure,1.878323888999148,sr
gamble,23,33,500,2340,0.5,risky,1.950161267999647,sr
gamble,23,34,500,2540,0.3,risky,2.2734211229999346,rs
gamble,23,35,500,4480,0.3,risky,1.5936934599994856,rs
gamble,23,36,500,300,1,sure,1.6593708649998007,sr
gamble,23,37,500,700,1,risky,1.755889500000194,sr
gamble,23,38,500,990,0.4,sure,2.1353191990001505,sr
gamble,23,39,500,870,0.4,sure,1.2528916520004714,sr
gamble,23,40,500,2650,0.4,risky,1.9884753779988387,sr
gamble,23,41,500,940,0.5,sure,2.2484255239996855,sr
gamble,23,42,500,830,0.4,sure,2.3365993489987886,rs
gamble,23,43,500,840,0.5,sure,2.3892768660007278,sr
gamble,23,44,500,1570,0.5,risky,1.7039547360000142,rs
gamble,23,45,500,1720,0.4,risky,1.5102666419988964,rs
gamble,23,46,500,3160,0.4,risky,1.163833844000692,rs
gamble,23,47,500,1120,0.3,sure,2.2083964869998454,rs
gamble,24,1,500,2180,0.3,sure,2.460826429000008,sr
gamble,24,2,500,1380,0.4,risky,1.2291332499989949,rs
gamble,24,3,500,1570,0.5,risky,2.7978484600025695,rs
gamble,24,4,500,800,0.5,sure,2.7206834240023454,rs
gamble,24,5,500,3160,0.4,risky,2.4373587999980373,sr
gamble,24,6,500,870,0.4,sure,3.462890367001819,rs
gamble,24,7,500,2340,0.5,risky,2.2870471050009655,rs
gamble,24,8,500,300,1,sure,1.509749147000548,sr
gamble,24,9,500,830,0.4,sure,3.227695969002525,rs
gamble,24,10,500,1080,0.5,sure,2.829080913998041,rs
gamble,24,11,500,1490,0.3,sure,2.3171874929976184,rs
gamble,24,12,500,2020,0.5,sure,2.2266038529996877,rs
gamble,24,13,500,1250,0.4,sure,1.804652120998071,rs
gamble,24,14,500,880,0.5,sure,1.4297037249998539,rs
gamble,24,15,500,730,0.5,sure,1.80743454000185,sr
gamble,24,16,500,1720,0.4,sure,2.633651293999719,sr
gamble,24,17,500,1890,0.3,sure,1.7943900039972505,sr
gamble,24,18,500,5650,0.3,risky,1.6285629730009532,sr
gamble,24,19,500,920,0.4,sure,1.1498336010008643,sr
gamble,24,20,500,1770,0.5,risky,1.8896724389996962,rs
gamble,24,21,500,3010,0.3,risky,4.328780289000861,sr
gamble,24,22,500,990,0.4,sure,1.1823391979996813,sr
gamble,24,23,500,1150,0.4,sure,1.3773269689991139,rs
gamble,24,24,500,3640,0.3,risky,1.820263514000544,sr
gamble,24,25,500,1410,0.5,risky,2.2134074319983483,sr
gamble,24,26,500,2650,0.4,risky,1.3758689189999131,rs
gamble,24,27,500,840,0.5,sure,0.9388078890006,rs
gamble,24,28,500,970,0.3,sure,1.0800965140006156,rs
gamble,24,29,500,1670,0.3,sure,1.8546354489990335,rs
gamble,24,30,500,1530,0.4,sure,2.150711100999615,rs
gamble,24,31,500,700,1,risky,1.5876671099977102,rs
gamble,24,32,500,3840,0.4,risky,1.8466724530007923,sr
gamble,24,33,500,1040,0.3,sure,2.6700938979993225,rs
gamble,24,34,500,7290,0.3,risky,1.2383430860027147,rs
gamble,24,35,500,1170,0.5,sure,1.9267083769991586,sr
gamble,24,36,500,1220,0.3,risky,1.5804023939999752,sr
gamble,24,37,500,4480,0.3,risky,1.4397236770018935,rs
gamble,24,38,500,2260,0.4,sure,2.6798452399998496,rs
gamble,24,39,500,1000,0.5,sure,1.9345136450028804,sr
gamble,24,40,500,940,0.5,sure,1.5080668819973653,sr
gamble,24,41,500,760,0.5,sure,1.4669230149993382,rs
gamble,24,42,500,1340,0.3,sure,1.2653824469998654,rs
gamble,24,43,500,1270,0.5,sure,1.1058490770010394,sr
gamble,24,44,500,2540,0.3,risky,1.4632772219993058,sr
gamble,24,45,500,1120,0.3,sure,1.5357668040014687,rs
gamble,24,46,500,1060,0.4,risky,0.9316656619994319,rs
gamble,24,47,500,1960,0.4,sure,2.897247332999541,sr
gamble,25,1,500,1170,0.5,risky,1.6175731550029013,rs
gamble,25,2,500,1120,0.3,sure,1.3789120639994508,sr
gamble,25,3,500,1530,0.4,sure,1.3101773419984966,rs
gamble,25,4,500,3840,0.4,risky,1.5164496399993368,rs
gamble,25,5,500,840,0.5,risky,1.6330636730017432,rs
gamble,25,6,500,1250,0.4,sure,1.4910651050013257,sr
gamble,25,7,500,2260,0.4,sure,1.5935745110000425,sr
gamble,25,8,500,990,0.4,sure,1.8350423859992588,rs
gamble,25,9,500,3640,0.3,sure,1.7952834060015448,sr
gamble,25,10,500,1570,0.5,risky,1.3266342440001608,rs
gamble,25,11,500,1150,0.4,sure,1.3554198649981117,sr
gamble,25,12,500,1220,0.3,sure,1.0795494289995986,sr
gamble,25,13,500,1270,0.5,risky,2.238467414998013,rs
gamble,25,14,500,2020,0.5,risky,1.303032935000374,rs
gamble,25,15,500,1410,0.5,risky,1.1570622119979816,rs
gamble,25,16,500,970,0.3,sure,1.1297005900014483,rs
gamble,25,17,500,2180,0.3,sure,1.4383746599996812,rs
gamble,25,18,500,3010,0.3,sure,0.9027155120020325,sr
gamble,25,19,500,1060,0.4,sure,1.429418188999989,sr
gamble,25,20,500,870,0.4,sure,1.1830928219969792,rs
gamble,25,21,500,5650,0.3,risky,1.7777234120003413,sr
gamble,25,22,500,1080,0.5,risky,1.5322854750011174,rs
gamble,25,23,500,880,0.5,risky,1.2325638029979018,sr
gamble,25,24,500,1960,0.4,sure,1.8101994879980339,rs
gamble,25,25,500,1670,0.3,sure,0.9074582399989595,sr
gamble,25,26,500,7290,0.3,risky,1.5622377769977902,sr
gamble,25,27,500,800,0.5,risky,1.7733154589986952,rs
gamble,25,28,500,760,0.5,sure,1.4329319260032207,sr
gamble,25,29,500,2650,0.4,sure,1.473822960000689,sr
gamble,25,30,500,940,0.5,sure,1.385853946001589,sr
gamble,25,31,500,1890,0.3,sure,1.5244476679981744,rs
gamble,25,32,500,1490,0.3,sure,1.1297411740015377,rs
gamble,25,33,500,2340,0.5,risky,1.630384234002122,sr
gamble,25,34,500,1720,0.4,sure,1.1519346329987457,sr
gamble,25,35,500,1340,0.3,sure,1.0123472380000749,sr
gamble,25,36,500,3160,0.4,sure,1.774016319999646,sr
gamble,25,37,500,1770,0.5,sure,1.7052017980022356,rs
gamble,25,38,500,920,0.4,sure,1.8162212679999357,sr
gamble,25,39,500,2540,0.3,sure,1.1695011359988712,rs
gamble,25,40,500,1380,0.4,sure,0.9964869099967473,sr
gamble,25,41,500,300,1,sure,2.22261818500192,sr
gamble,25,42,500,1000,0.5,sure,1.6238918179988104,sr
gamble,25,43,500,4480,0.3,sure,1.8025689370006148,sr
gamble,25,44,500,700,1,risky,1.988440780001838,sr
gamble,25,45,500,730,0.5,sure,2.4398893209981907,sr
gamble,25,46,500,1040,0.3,sure,1.128640008999355,rs
gamble,25,47,500,830,0.4,sure,0.9888777140004095,sr
gamble,26,1,500,920,0.4,sure,3.893508681001549,sr
gamble,26,2,500,1150,0.4,sure,4.028003671999613,sr
gamble,26,3,500,2340,0.5,risky,3.341199301001325,rs
gamble,26,4,500,1080,0.5,risky,1.9774820069978887,rs
gamble,26,5,500,1120,0.3,sure,2.187638462000905,rs
gamble,26,6,500,700,1,risky,2.486993722999614,rs
gamble,26,7,500,2180,0.3,risky,2.2626562219993502,rs
gamble,26,8,500,990,0.4,sure,2.573591921998741,rs
gamble,26,9,500,1670,0.3,risky,3.753835812000034,sr
gamble,26,10,500,1250,0.4,sure,2.8061044099995343,sr
gamble,26,11,500,1040,0.3,sure,3.816846720998001,rs
gamble,26,12,500,3840,0.4,risky,4.050756254000589,rs
gamble,26,13,500,2260,0.4,risky,3.378851872999803,sr
gamble,26,14,500,800,0.5,sure,2.782461480001075,rs
gamble,26,15,500,730,0.5,sure,6.145792934003111,rs
gamble,26,16,500,2540,0.3,sure,1.806036096997559,rs
gamble,26,17,500,3160,0.4,risky,3.799779920002038,sr
gamble,26,18,500,1890,0.3,sure,5.523276391999389,rs
gamble,26,19,500,5650,0.3,sure,2.52067876000001,sr
gamble,26,20,500,1530,0.4,sure,4.02225266700043,sr
gamble,26,21,500,1270,0.5,sure,1.7995282689989835,rs
gamble,26,22,500,1380,0.4,sure,4.018230236000818,sr
gamble,26,23,500,300,1,sure,1.2845585940012825,rs
gamble,26,24,500,880,0.5,sure,1.7959327859971381,sr
gamble,26,25,500,1220,0.3,sure,3.8059494360022654,sr
gamble,26,26,500,2650,0.4,risky,3.4323326660014573,sr
gamble,26,27,500,1490,0.3,sure,2.497133765002218,sr
gamble,26,28,500,3640,0.3,risky,4.415941732000647,sr
gamble,26,29,500,4480,0.3,sure,4.144996210001409,rs
gamble,26,30,500,3010,0.3,sure,2.8621441640025296,sr
gamble,26,31,500,1960,0.4,risky,2.126422793000529,sr
gamble,26,32,500,970,0.3,sure,1.3867625389975728,sr
gamble,26,33,500,1720,0.4,sure,2.1333648950021598,rs
gamble,26,34,500,1060,0.4,sure,3.090062780000153,sr
gamble,26,35,500,1000,0.5,sure,2.4736393250022957,sr
gamble,26,36,500,1170,0.5,risky,4.953169045998948,rs
gamble,26,37,500,1410,0.5,risky,3.3500062080020143,rs
gamble,26,38,500,830,0.4,sure,1.234542580001289,rs
gamble,26,39,500,2020,0.5,risky,2.563178599000821,rs
gamble,26,40,500,1570,0.5,sure,4.86332159900121,rs
gamble,26,41,500,940,0.5,sure,2.767358119999699,rs
gamble,26,42,500,870,0.4,sure,1.9225175390020013,rs
gamble,26,43,500,7290,0.3,risky,1.3206943209988822,rs
gamble,26,44,500,1770,0.5,risky,1.9746552649994555,sr
gamble,26,45,500,1340,0.3,sure,6.762057289997756,rs
gamble,26,46,500,760,0.5,sure,1.2137085270005628,rs
gamble,26,47,500,840,0.5,sure,1.0078634870005772,rs
gamble,27,1,500,3160,0.4,risky,4.421836510000048,rs
gamble,27,2,500,1890,0.3,sure,2.6145919020000292,sr
gamble,27,3,500,1170,0.5,sure,2.0164948080000613,sr
gamble,27,4,500,1960,0.4,sure,2.25804958599997,rs
gamble,27,5,500,1150,0.4,sure,1.2894571910001105,sr
gamble,27,6,500,880,0.5,sure,1.6253716789999544,sr
gamble,27,7,500,1040,0.3,sure,1.2108344349999243,sr
gamble,27,8,500,1340,0.3,sure,0.9885091809999267,rs
gamble,27,9,500,2260,0.4,sure,2.3593310609999207,rs
gamble,27,10,500,5650,0.3,sure,2.1063977789999626,sr
gamble,27,11,500,2180,0.3,sure,1.3370557009998265,rs
gamble,27,12,500,2540,0.3,sure,1.0140624289999778,rs
gamble,27,13,500,2020,0.5,risky,4.494686154999954,sr
gamble,27,14,500,3010,0.3,sure,1.645890713999961,sr
gamble,27,15,500,4480,0.3,risky,2.029901310000014,rs
gamble,27,16,500,1380,0.4,sure,1.9030469859999357,sr
gamble,27,17,500,1000,0.5,sure,1.1894355759998234,sr
gamble,27,18,500,1120,0.3,sure,0.8561952089999068,rs
gamble,27,19,500,940,0.5,sure,1.0969496889999846,rs
gamble,27,20,500,2650,0.4,sure,3.67856873300002,rs
gamble,27,21,500,990,0.4,sure,1.566063247999864,sr
gamble,27,22,500,700,1,risky,1.9378548189999947,sr
gamble,27,23,500,870,0.4,sure,1.8146925349999492,rs
gamble,27,24,500,970,0.3,sure,1.472165521999841,sr
gamble,27,25,500,1410,0.5,sure,1.3358546780000324,rs
gamble,27,26,500,3840,0.4,sure,2.6926174709999486,sr
gamble,27,27,500,730,0.5,sure,1.4835759410000264,sr
gamble,27,28,500,300,1,sure,1.6015381309998702,sr
gamble,27,29,500,1770,0.5,sure,2.372333585999968,rs
gamble,27,30,500,1490,0.3,sure,0.9993050820000917,rs
gamble,27,31,500,920,0.4,sure,0.898078046000137,rs
gamble,27,32,500,3640,0.3,sure,2.8806412139999793,sr
gamble,27,33,500,1270,0.5,sure,0.9279352799999288,rs
gamble,27,34,500,840,0.5,sure,0.8279839540000467,sr
gamble,27,35,500,1670,0.3,sure,1.1011598949999097,sr
gamble,27,36,500,800,0.5,sure,3.6988341679998484,rs
gamble,27,37,500,1250,0.4,sure,1.522355134999998,sr
gamble,27,38,500,2340,0.5,sure,4.407393750999972,rs
gamble,27,39,500,1530,0.4,sure,1.6256514990000142,rs
gamble,27,40,500,7290,0.3,risky,2.39434878499992,rs
gamble,27,41,500,1570,0.5,sure,2.7812885549999464,rs
gamble,27,42,500,1060,0.4,sure,2.2245139510000627,rs
gamble,27,43,500,1220,0.3,sure,1.2105091690000336,sr
gamble,27,44,500,830,0.4,sure,2.0592860389999714,sr
gamble,27,45,500,1080,0.5,sure,2.891147045000025,sr
gamble,27,46,500,1720,0.4,sure,1.3690681069999755,rs
gamble,27,47,500,760,0.5,sure,1.4611412780000137,sr
gamble,28,1,500,1270,0.5,risky,2.4430775189998712,rs
gamble,28,2,500,2180,0.3,sure,2.4906934760001604,rs
gamble,28,3,500,1380,0.4,risky,2.025641379999797,sr
gamble,28,4,500,3640,0.3,risky,1.098162456999944,rs
gamble,28,5,500,1770,0.5,risky,1.008991982000225,sr
gamble,28,6,500,1250,0.4,risky,2.0738932720000776,rs
gamble,28,7,500,3840,0.4,risky,1.1287563000000773,sr
gamble,28,8,500,1120,0.3,sure,1.6934828710000147,rs
gamble,28,9,500,2260,0.4,risky,1.1959456439999485,rs
gamble,28,10,500,840,0.5,sure,1.5984220149998691,rs
gamble,28,11,500,1670,0.3,sure,2.1928227519997563,rs
gamble,28,12,500,1490,0.3,sure,2.219159987999774,sr
gamble,28,13,500,920,0.4,risky,0.9003881960002218,sr
gamble,28,14,500,1000,0.5,risky,1.5385787999998684,sr
gamble,28,15,500,760,0.5,sure,2.373858587000086,rs
gamble,28,16,500,1150,0.4,risky,4.249091115000283,sr
gamble,28,17,500,1960,0.4,risky,0.8171850170001562,sr
gamble,28,18,500,3160,0.4,risky,1.2502942449996226,rs
gamble,28,19,500,2020,0.5,risky,1.2658883909998622,rs
gamble,28,20,500,1890,0.3,risky,2.5601707410000927,rs
gamble,28,21,500,1530,0.4,risky,1.5319609739999578,rs
gamble,28,22,500,880,0.5,sure,1.679713917999834,sr
gamble,28,23,500,730,0.5,risky,0.8458906269997897,rs
gamble,28,24,500,700,1,risky,2.284853034000207,rs
gamble,28,25,500,990,0.4,sure,1.7629377650000606,rs
gamble,28,26,500,1040,0.3,sure,1.6932184520001101,rs
gamble,28,27,500,300,1,sure,2.3950867359999393,sr
gamble,28,28,500,1570,0.5,risky,1.292411137000272,rs
gamble,28,29,500,1080,0.5,risky,3.689159775999997,sr
gamble,28,30,500,1410,0.5,risky,1.0149730319999435,sr
gamble,28,31,500,2540,0.3,risky,1.2316919730001246,sr
gamble,28,32,500,940,0.5,sure,1.1501092070002414,rs
gamble,28,33,500,1170,0.5,sure,2.7213616619997083,sr
gamble,28,34,500,5650,0.3,risky,1.3494868099996893,rs
gamble,28,35,500,830,0.4,sure,2.2241000689996326,rs
gamble,28,36,500,870,0.4,sure,0.9357756309996148,rs
gamble,28,37,500,1060,0.4,sure,3.0587466179999865,rs
gamble,28,38,500,7290,0.3,risky,1.5130923700003223,sr
gamble,28,39,500,800,0.5,sure,1.3409558489997835,sr
gamble,28,40,500,3010,0.3,risky,0.919112676000168,sr
gamble,28,41,500,2650,0.4,risky,1.2196265480001784,sr
gamble,28,42,500,2340,0.5,risky,1.1235808169999473,sr
gamble,28,43,500,1220,0.3,sure,1.431444742000167,rs
gamble,28,44,500,970,0.3,sure,1.1829341120001118,sr
gamble,28,45,500,1340,0.3,risky,2.3356863899998643,rs
gamble,28,46,500,4480,0.3,risky,1.2831411790002676,sr
gamble,28,47,500,1720,0.4,risky,1.3932507920003445,sr
gamble,29,1,500,1080,0.5,risky,2.329998838999927,sr
gamble,29,2,500,1490,0.3,risky,4.4315823280003315,rs
gamble,29,3,500,1120,0.3,sure,2.3853176529992197,rs
gamble,29,4,500,2650,0.4,risky,2.595720378999431,sr
gamble,29,5,500,1170,0.5,risky,1.2930606380004974,sr
gamble,29,6,500,1040,0.3,sure,4.492367457999535,rs
gamble,29,7,500,700,1,risky,1.3230136439997295,rs
gamble,29,8,500,5650,0.3,risky,1.3679415740007244,rs
gamble,29,9,500,2180,0.3,risky,1.123640943999817,rs
gamble,29,10,500,3640,0.3,risky,1.225272732999656,rs
gamble,29,11,500,1670,0.3,sure,5.706458665000355,sr
gamble,29,12,500,970,0.3,sure,1.6739342490000126,rs
gamble,29,13,500,920,0.4,sure,1.7368079130001206,rs
gamble,29,14,500,1410,0.5,risky,1.0300141379993875,sr
gamble,29,15,500,940,0.5,sure,1.4230510849993152,rs
gamble,29,16,500,2020,0.5,risky,1.1607008639994092,rs
gamble,29,17,500,3840,0.4,risky,1.0524517899993953,rs
gamble,29,18,500,730,0.5,sure,2.260132667000107,rs
gamble,29,19,500,1570,0.5,risky,1.9153465829995184,rs
gamble,29,20,500,1960,0.4,risky,0.8808994829996664,rs
gamble,29,21,500,1270,0.5,risky,3.791903275999175,rs
gamble,29,22,500,3160,0.4,risky,0.9384324389993708,sr
gamble,29,23,500,1530,0.4,risky,1.559874272000343,rs
gamble,29,24,500,1000,0.5,sure,1.4668276640004478,rs
gamble,29,25,500,1060,0.4,risky,1.8909011160003502,sr
gamble,29,26,500,3010,0.3,risky,1.209086257999843,rs
gamble,29,27,500,300,1,sure,1.2115562409999256,sr
gamble,29,28,500,1770,0.5,risky,1.180883840000206,rs
gamble,29,29,500,830,0.4,sure,2.1600387270000283,rs
gamble,29,30,500,1720,0.4,risky,0.8915070680004646,sr
gamble,29,31,500,2340,0.5,risky,0.9213141049995102,rs
gamble,29,32,500,1150,0.4,risky,1.703572415999588,sr
gamble,29,33,500,870,0.4,sure,1.1087765989996115,rs
gamble,29,34,500,1380,0.4,risky,1.0834038160001,sr
gamble,29,35,500,760,0.5,sure,1.089353274000132,sr
gamble,29,36,500,1250,0.4,risky,1.0644444559993644,sr
gamble,29,37,500,880,0.5,sure,1.0398552360002213,sr
gamble,29,38,500,7290,0.3,risky,1.049413855000239,sr
gamble,29,39,500,800,0.5,sure,0.9453924980007287,sr
gamble,29,40,500,2540,0.3,risky,1.0053793519991814,rs
gamble,29,41,500,2260,0.4,risky,1.079873943000166,rs
gamble,29,42,500,1890,0.3,sure,1.4384440359999644,rs
gamble,29,43,500,990,0.4,sure,1.0799961449993134,sr
gamble,29,44,500,4480,0.3,risky,0.9905443489997197,rs
gamble,29,45,500,1340,0.3,sure,1.0979043949992047,rs
gamble,29,46,500,840,0.5,sure,0.9915716149998843,rs
gamble,29,47,500,1220,0.3,sure,1.0502795319998768,sr
gamble,30,1,500,840,0.5,sure,1.7844275120005477,sr
gamble,30,2,500,1170,0.5,sure,1.3956309679997503,sr
gamble,30,3,500,5650,0.3,sure,2.525943823999114,sr
gamble,30,4,500,920,0.4,sure,2.2341328490001615,sr
gamble,30,5,500,760,0.5,sure,2.6435234359996684,rs
gamble,30,6,500,2020,0.5,sure,2.475890910000089,rs
gamble,30,7,500,1250,0.4,sure,3.530773856000451,rs
gamble,30,8,500,2650,0.4,sure,1.4561809019996872,rs
gamble,30,9,500,700,1,risky,1.897142370000438,sr
gamble,30,10,500,2180,0.3,sure,1.5032342080012313,sr
gamble,30,11,500,2260,0.4,sure,1.2852142940009799,rs
gamble,30,12,500,1270,0.5,sure,2.387920518000101,sr
gamble,30,13,500,2540,0.3,sure,1.415894968999055,sr
gamble,30,14,500,7290,0.3,risky,1.648754263000228,rs
gamble,30,15,500,3640,0.3,sure,1.1371154019998357,rs
gamble,30,16,500,1770,0.5,sure,1.3172589949990652,sr
gamble,30,17,500,3010,0.3,sure,0.8193855510016874,sr
gamble,30,18,500,1000,0.5,sure,1.205750666998938,sr
gamble,30,19,500,1530,0.4,sure,0.8232432559998415,sr
gamble,30,20,500,800,0.5,sure,1.2406625390012778,sr
gamble,30,21,500,1040,0.3,risky,0.9213816550000047,rs
gamble,30,22,500,1080,0.5,sure,2.2152815280005598,sr
gamble,30,23,500,300,1,sure,1.6010550030005106,sr
gamble,30,24,500,1060,0.4,sure,1.8430219930014573,rs
gamble,30,25,500,4480,0.3,sure,1.8363197020007647,sr
gamble,30,26,500,1490,0.3,sure,1.5078110040012689,rs
gamble,30,27,500,1120,0.3,sure,1.0987698210010421,rs
gamble,30,28,500,1220,0.3,sure,1.0882955409997521,rs
gamble,30,29,500,1340,0.3,sure,0.9674012819996278,sr
gamble,30,30,500,870,0.4,sure,1.2833314500003326,rs
gamble,30,31,500,1960,0.4,sure,2.1137919720003993,rs
gamble,30,32,500,1720,0.4,sure,0.9279287900008057,rs
gamble,30,33,500,1670,0.3,sure,0.9079773619996558,sr
gamble,30,34,500,3840,0.4,sure,1.8653933389996382,rs
gamble,30,35,500,1410,0.5,sure,3.249643373001163,sr
gamble,30,36,500,940,0.5,sure,1.362624147999668,sr
gamble,30,37,500,990,0.4,sure,1.0215554009992047,rs
gamble,30,38,500,1150,0.4,sure,0.8224190419987281,rs
gamble,30,39,500,970,0.3,sure,0.7924314690008032,sr
gamble,30,40,500,730,0.5,sure,0.890540365000561,rs
gamble,30,41,500,1380,0.4,sure,0.6979442629999539,sr
gamble,30,42,500,880,0.5,sure,0.8156378300009237,rs
gamble,30,43,500,1570,0.5,sure,1.392977941000936,sr
gamble,30,44,500,3160,0.4,sure,1.019282227000076,rs
gamble,30,45,500,830,0.4,sure,0.7576699279998138,rs
gamble,30,46,500,1890,0.3,sure,1.2730148099999496,rs
gamble,30,47,500,2340,0.5,sure,1.4966479179984162,sr
gamble,31,1,500,990,0.4,risky,3.018692424000619,rs
gamble,31,2,500,970,0.3,sure,2.8524171809986,rs
gamble,31,3,500,1890,0.3,risky,2.0691723600029945,rs
gamble,31,4,500,4480,0.3,risky,1.733000145002734,sr
gamble,31,5,500,880,0.5,sure,4.27331578400117,sr
gamble,31,6,500,3640,0.3,risky,1.337056759002735,sr
gamble,31,7,500,3010,0.3,risky,2.277601917998254,sr
gamble,31,8,500,1770,0.5,risky,2.0767322840001725,sr
gamble,31,9,500,730,0.5,sure,4.427898494999681,sr
gamble,31,10,500,1270,0.5,risky,2.045555623997643,sr
gamble,31,11,500,700,1,risky,1.1338730759998725,sr
gamble,31,12,500,1170,0.5,risky,2.1471791290023248,sr
gamble,31,13,500,1670,0.3,sure,2.063000664998981,rs
gamble,31,14,500,1120,0.3,sure,2.543425355001091,rs
gamble,31,15,500,1530,0.4,risky,3.4509793239994906,sr
gamble,31,16,500,300,1,sure,1.5875859510015289,sr
gamble,31,17,500,870,0.4,sure,2.2309472060005646,sr
gamble,31,18,500,1080,0.5,risky,2.3186671410003328,sr
gamble,31,19,500,760,0.5,sure,2.9967069440026535,rs
gamble,31,20,500,1250,0.4,sure,3.1992463229980785,sr
gamble,31,21,500,2340,0.5,risky,2.0340331209990836,sr
gamble,31,22,500,2650,0.4,sure,2.130669318998116,rs
gamble,31,23,500,2540,0.3,risky,3.9834758319993853,sr
gamble,31,24,500,1960,0.4,risky,2.419794503999583,sr
gamble,31,25,500,1340,0.3,sure,3.476636557999882,rs
gamble,31,26,500,920,0.4,sure,2.9881509139995615,rs
gamble,31,27,500,2180,0.3,risky,3.367404140000872,rs
gamble,31,28,500,7290,0.3,risky,2.1949463590026426,sr
gamble,31,29,500,1150,0.4,sure,2.8931648960024177,rs
gamble,31,30,500,830,0.4,sure,3.56319591799911,rs
gamble,31,31,500,800,0.5,sure,2.3028433159997803,sr
gamble,31,32,500,1490,0.3,sure,2.741571307000413,sr
gamble,31,33,500,1060,0.4,sure,2.5711216119998426,rs
gamble,31,34,500,1570,0.5,risky,2.8544100539984356,rs
gamble,31,35,500,1720,0.4,risky,3.3348132889987028,sr
gamble,31,36,500,1410,0.5,risky,2.723769956999604,sr
gamble,31,37,500,5650,0.3,risky,1.8654579989997728,sr
gamble,31,38,500,3840,0.4,risky,2.640813353998965,rs
gamble,31,39,500,2260,0.4,risky,3.5137891409976874,sr
gamble,31,40,500,1380,0.4,risky,2.639812299999903,rs
gamble,31,41,500,3160,0.4,risky,3.913064383999881,rs
gamble,31,42,500,1000,0.5,sure,2.5273196490015835,rs
gamble,31,43,500,840,0.5,sure,3.4995831030028057,sr
gamble,31,44,500,1220,0.3,sure,2.690288891997625,sr
gamble,31,45,500,1040,0.3,sure,2.025368751001224,rs
gamble,31,46,500,2020,0.5,risky,1.7714777910005068,sr
gamble,31,47,500,940,0.5,sure,4.535411536999163,rs
gamble,32,1,500,3840,0.4,sure,4.6004499810005655,sr
gamble,32,2,500,4480,0.3,sure,1.699914542001352,sr
gamble,32,3,500,2340,0.5,risky,2.3059166570019443,sr
gamble,32,4,500,800,0.5,sure,2.3273158250012784,rs
gamble,32,5,500,1490,0.3,sure,1.8369815309997648,rs
gamble,32,6,500,1220,0.3,sure,1.3963342559982266,rs
gamble,32,7,500,1340,0.3,sure,2.0784276470003533,sr
gamble,32,8,500,760,0.5,sure,3.6141695929982234,sr
gamble,32,9,500,1380,0.4,sure,1.2795844829997804,sr
gamble,32,10,500,2540,0.3,sure,3.2611703520015,sr
gamble,32,11,500,920,0.4,sure,1.7723809170020104,rs
gamble,32,12,500,1150,0.4,sure,1.8155941660006647,sr
gamble,32,13,500,1080,0.5,sure,1.5047267590016418,sr
gamble,32,14,500,1410,0.5,sure,2.134217613001965,rs
gamble,32,15,500,1120,0.3,sure,1.0270369690006191,sr
gamble,32,16,500,1890,0.3,sure,1.196219810997718,sr
gamble,32,17,500,2020,0.5,sure,2.8771823850001965,rs
gamble,32,18,500,2650,0.4,sure,2.0436510709987488,rs
gamble,32,19,500,940,0.5,sure,1.3710831569987931,rs
gamble,32,20,500,3640,0.3,sure,3.22203820499999,sr
gamble,32,21,500,7290,0.3,sure,3.718628737999097,rs
gamble,32,22,500,1060,0.4,sure,1.572793287999957,sr
gamble,32,23,500,300,1,sure,1.5434180980009842,rs
gamble,32,24,500,700,1,risky,1.8666064150020247,sr
gamble,32,25,500,830,0.4,sure,2.242534646000422,rs
gamble,32,26,500,1770,0.5,sure,3.8653619659999094,rs
gamble,32,27,500,1960,0.4,sure,2.944350626999949,rs
gamble,32,28,500,1670,0.3,sure,2.668731605997891,rs
gamble,32,29,500,1000,0.5,sure,1.4266365299990866,rs
gamble,32,30,500,1720,0.4,sure,3.5147564969993255,sr
gamble,32,31,500,1170,0.5,sure,2.4947537790030765,sr
gamble,32,32,500,990,0.4,sure,3.9161487909987045,rs
gamble,32,33,500,870,0.4,sure,1.1372213769973314,sr
gamble,32,34,500,1570,0.5,sure,2.644762161999097,sr
gamble,32,35,500,2260,0.4,sure,2.3005139189990587,sr
gamble,32,36,500,3010,0.3,sure,2.7675478759992984,sr
gamble,32,37,500,1250,0.4,sure,1.810080609000579,sr
gamble,32,38,500,1530,0.4,sure,1.4666863570018904,sr
gamble,32,39,500,970,0.3,sure,1.6153554960001202,rs
gamble,32,40,500,730,0.5,sure,1.424233505000302,rs
gamble,32,41,500,2180,0.3,sure,1.1281691219992354,sr
gamble,32,42,500,5650,0.3,sure,3.3065467180022097,sr
gamble,32,43,500,1040,0.3,sure,4.2959200290024455,sr
gamble,32,44,500,840,0.5,sure,1.0836307460012904,sr
gamble,32,45,500,3160,0.4,sure,1.8413075669996033,sr
gamble,32,46,500,1270,0.5,sure,2.071367825999914,rs
gamble,32,47,500,880,0.5,sure,1.1898851449986978,rs
gamble,33,1,500,1220,0.3,sure,2.841265053997631,sr
gamble,33,2,500,1340,0.3,risky,2.9699787959980313,rs
gamble,33,3,500,1380,0.4,risky,3.0781045030016685,rs
gamble,33,4,500,1000,0.5,risky,3.1330972219984687,sr
gamble,33,5,500,3010,0.3,risky,2.1457406890003767,sr
gamble,33,6,500,7290,0.3,risky,1.4225570039998274,rs
gamble,33,7,500,1060,0.4,risky,3.6073339840004337,sr
gamble,33,8,500,1270,0.5,risky,1.0661974510003347,sr
gamble,33,9,500,1490,0.3,sure,3.633595677001722,rs
gamble,33,10,500,880,0.5,sure,3.2025766130027478,rs
gamble,33,11,500,1960,0.4,risky,2.4049379319985746,rs
gamble,33,12,500,920,0.4,sure,1.4478538439980184,rs
gamble,33,13,500,1890,0.3,risky,2.3683495850018517,sr
gamble,33,14,500,990,0.4,sure,1.9881575990002602,sr
gamble,33,15,500,1570,0.5,risky,1.7509059940020961,sr
gamble,33,16,500,1250,0.4,sure,1.587429177998274,sr
gamble,33,17,500,1410,0.5,risky,2.053535772996838,sr
gamble,33,18,500,1770,0.5,risky,0.8698228689972893,sr
gamble,33,19,500,760,0.5,sure,1.077774709003279,sr
gamble,33,20,500,2260,0.4,risky,4.381263879997277,rs
gamble,33,21,500,1040,0.3,sure,1.2163450560001365,rs
gamble,33,22,500,2540,0.3,risky,1.2978209360007895,rs
gamble,33,23,500,970,0.3,sure,1.2788280829990981,sr
gamble,33,24,500,1080,0.5,sure,2.318811413999356,sr
gamble,33,25,500,730,0.5,sure,1.060418403998483,sr
gamble,33,26,500,1170,0.5,sure,2.491740117999143,rs
gamble,33,27,500,1120,0.3,sure,1.5785012380001717,rs
gamble,33,28,500,3640,0.3,risky,1.0050617950000742,rs
gamble,33,29,500,940,0.5,sure,1.5116879270026402,sr
gamble,33,30,500,840,0.5,sure,0.8131098029989516,sr
gamble,33,31,500,300,1,sure,1.82185191499957,sr
gamble,33,32,500,5650,0.3,risky,1.4802954539991333,sr
gamble,33,33,500,700,1,risky,1.5834708670008695,sr
gamble,33,34,500,870,0.4,sure,2.674106304999441,sr
gamble,33,35,500,1670,0.3,sure,1.5767560569984198,rs
gamble,33,36,500,2650,0.4,risky,1.5648793339969416,rs
gamble,33,37,500,3160,0.4,risky,0.8005220949999057,rs
gamble,33,38,500,4480,0.3,risky,1.3302229440014344,rs
gamble,33,39,500,2340,0.5,risky,1.9029337909996684,sr
gamble,33,40,500,830,0.4,sure,1.364355258003343,rs
gamble,33,41,500,800,0.5,sure,1.153184180999233,sr
gamble,33,42,500,2020,0.5,risky,1.1893112949983333,sr
gamble,33,43,500,3840,0.4,risky,1.3680778469970392,sr
gamble,33,44,500,1720,0.4,sure,4.243905380997603,sr
gamble,33,45,500,1530,0.4,sure,1.6929096599997138,rs
gamble,33,46,500,2180,0.3,risky,1.6264677899998787,rs
gamble,33,47,500,1150,0.4,sure,1.2764253499990446,sr
gamble,34,1,500,990,0.4,sure,11.704764287998842,rs
gamble,34,2,500,1720,0.4,risky,3.864904818998184,sr
gamble,34,3,500,970,0.3,sure,4.176928468998085,rs
gamble,34,4,500,5650,0.3,risky,3.5319815289985854,sr
gamble,34,5,500,1040,0.3,sure,3.53694082599759,sr
gamble,34,6,500,1120,0.3,risky,4.628719645003002,rs
gamble,34,7,500,830,0.4,sure,5.1498123860001215,rs
gamble,34,8,500,1570,0.5,risky,2.5465349959995365,rs
gamble,34,9,500,1000,0.5,risky,3.0859274059985182,sr
gamble,34,10,500,920,0.4,sure,2.676511121000658,sr
gamble,34,11,500,800,0.5,risky,4.15543958499984,sr
gamble,34,12,500,2650,0.4,risky,2.135059263000585,rs
gamble,34,13,500,880,0.5,risky,11.827148124000814,sr
gamble,34,14,500,840,0.5,risky,2.8130568609994953,sr
gamble,34,15,500,3840,0.4,risky,1.726087921000726,rs
gamble,34,16,500,1410,0.5,risky,1.5781997679987398,rs
gamble,34,17,500,1960,0.4,risky,2.268495148000511,sr
gamble,34,18,500,760,0.5,sure,3.2355658970009245,sr
gamble,34,19,500,1220,0.3,sure,6.419595396000659,sr
gamble,34,20,500,2020,0.5,risky,1.6530601129998104,sr
gamble,34,21,500,1890,0.3,sure,7.716913459000352,rs
gamble,34,22,500,2340,0.5,risky,1.4744858789999853,rs
gamble,34,23,500,1490,0.3,sure,6.729236490999028,sr
gamble,34,24,500,1060,0.4,sure,2.7490256819983188,sr
gamble,34,25,500,2180,0.3,risky,4.112778892998904,sr
gamble,34,26,500,1670,0.3,sure,1.3584624440009065,sr
gamble,34,27,500,940,0.5,risky,6.314635986000212,rs
gamble,34,28,500,3640,0.3,risky,1.871045697000227,sr
gamble,34,29,500,1530,0.4,sure,5.0458360299999185,rs
gamble,34,30,500,1250,0.4,sure,2.6380670520011336,sr
gamble,34,31,500,1380,0.4,sure,1.3815089010022348,sr
gamble,34,32,500,870,0.4,sure,3.936318656000367,rs
gamble,34,33,500,700,1,risky,1.9712638540004264,sr
gamble,34,34,500,730,0.5,sure,1.942475834999641,rs
gamble,34,35,500,3160,0.4,risky,1.4179307049998897,rs
gamble,34,36,500,1340,0.3,sure,7.074019084997417,sr
gamble,34,37,500,1080,0.5,risky,9.865743560003466,rs
gamble,34,38,500,1770,0.5,risky,1.4897003559999575,rs
gamble,34,39,500,3010,0.3,risky,3.334768963002716,sr
gamble,34,40,500,1270,0.5,risky,2.3538015140002244,rs
gamble,34,41,500,2540,0.3,risky,3.0779722580009548,sr
gamble,34,42,500,4480,0.3,risky,1.451947295001446,rs
gamble,34,43,500,7290,0.3,risky,1.1391376620013034,rs
gamble,34,44,500,1170,0.5,risky,3.7978967990020465,sr
gamble,34,45,500,2260,0.4,risky,2.0149164960021153,sr
gamble,34,46,500,300,1,sure,1.6482926009994117,sr
gamble,34,47,500,1150,0.4,sure,4.1597907499999565,rs
gamble,35,1,500,2020,0.5,risky,2.6104272820002734,sr
gamble,35,2,500,1670,0.3,risky,2.92441274399971,rs
gamble,35,3,500,1570,0.5,risky,1.7539500849998149,sr
gamble,35,4,500,730,0.5,sure,2.533861750000142,rs
gamble,35,5,500,2540,0.3,risky,3.666990491999968,sr
gamble,35,6,500,4480,0.3,risky,1.9227758669999275,rs
gamble,35,7,500,1170,0.5,risky,2.600520211999992,sr
gamble,35,8,500,1000,0.5,sure,4.434931024999969,sr
gamble,35,9,500,5650,0.3,risky,2.1484425469998314,rs
gamble,35,10,500,870,0.4,sure,1.9526102059999175,sr
gamble,35,11,500,1770,0.5,risky,1.9239847589997225,sr
gamble,35,12,500,2340,0.5,risky,1.2585041070001353,rs
gamble,35,13,500,1080,0.5,sure,2.3463261840001906,sr
gamble,35,14,500,840,0.5,sure,1.4706622629996673,rs
gamble,35,15,500,1270,0.5,risky,2.1021063059997687,rs
gamble,35,16,500,1120,0.3,sure,1.9735102909999114,rs
gamble,35,17,500,3640,0.3,risky,1.5605083909999848,rs
gamble,35,18,500,700,1,risky,2.715899588999946,sr
gamble,35,19,500,1380,0.4,risky,2.0975999299998875,sr
gamble,35,20,500,990,0.4,sure,1.535671378999723,rs
gamble,35,21,500,300,1,sure,1.7493924450000122,sr
gamble,35,22,500,1720,0.4,risky,1.8092826920001244,sr
gamble,35,23,500,1250,0.4,sure,2.6832703729996865,sr
gamble,35,24,500,1890,0.3,sure,2.0974298920000365,rs
gamble,35,25,500,970,0.3,sure,1.984510956000122,rs
gamble,35,26,500,940,0.5,sure,1.7151954050000313,rs
gamble,35,27,500,1490,0.3,risky,2.1613325749999603,rs
gamble,35,28,500,1220,0.3,sure,3.2451938760000303,rs
gamble,35,29,500,2260,0.4,risky,1.789393585000198,sr
gamble,35,30,500,3840,0.4,risky,1.368142794999585,rs
gamble,35,31,500,800,0.5,sure,3.7478294819998155,rs
gamble,35,32,500,1410,0.5,risky,1.455926071000249,sr
gamble,35,33,500,1040,0.3,sure,1.7524086769999485,rs
gamble,35,34,500,1340,0.3,sure,1.8602675029997044,sr
gamble,35,35,500,830,0.4,sure,1.3567553319999206,rs
gamble,35,36,500,920,0.4,sure,3.3839333799996894,sr
gamble,35,37,500,7290,0.3,risky,1.9239768729999014,sr
gamble,35,38,500,3160,0.4,risky,1.6253805940000348,rs
gamble,35,39,500,2650,0.4,risky,1.7065399660000367,sr
gamble,35,40,500,3010,0.3,risky,1.8168482249998306,rs
gamble,35,41,500,1960,0.4,risky,2.5623082189999877,sr
gamble,35,42,500,1530,0.4,risky,1.9668820819997563,rs
gamble,35,43,500,880,0.5,sure,1.153903948000334,sr
gamble,35,44,500,1060,0.4,sure,2.7258929240001635,sr
gamble,35,45,500,1150,0.4,sure,1.4516161859996828,sr
gamble,35,46,500,2180,0.3,risky,2.3236011060002966,rs
gamble,35,47,500,760,0.5,sure,1.129667149999932,sr
gamble,36,1,500,1120,0.3,sure,7.2079000580001775,rs
gamble,36,2,500,2180,0.3,risky,2.346421055999599,rs
gamble,36,3,500,840,0.5,sure,1.4545908360000794,rs
gamble,36,4,500,1150,0.4,sure,4.342246901999715,sr
gamble,36,5,500,2650,0.4,risky,1.7875613730002442,rs
gamble,36,6,500,970,0.3,risky,1.525512599999729,sr
gamble,36,7,500,5650,0.3,risky,2.5220226949995777,sr
gamble,36,8,500,1530,0.4,risky,2.311286026000289,rs
gamble,36,9,500,1170,0.5,risky,2.81339401599962,rs
gamble,36,10,500,1000,0.5,sure,1.2307740000001104,rs
gamble,36,11,500,1250,0.4,sure,2.5915099399999235,rs
gamble,36,12,500,1570,0.5,risky,1.5303627610001058,rs
gamble,36,13,500,1340,0.3,sure,1.9992139549999592,sr
gamble,36,14,500,1270,0.5,sure,2.705005540000002,sr
gamble,36,15,500,1490,0.3,risky,3.0469441709997227,sr
gamble,36,16,500,1080,0.5,sure,1.902945290000389,rs
gamble,36,17,500,1720,0.4,risky,1.8279936859998998,sr
gamble,36,18,500,940,0.5,sure,2.2847837569997864,sr
gamble,36,19,500,830,0.4,sure,3.6510933899999145,rs
gamble,36,20,500,990,0.4,sure,3.011595275000218,sr
gamble,36,21,500,2540,0.3,risky,2.4288132140000016,rs
gamble,36,22,500,730,0.5,sure,3.421917404999931,sr
gamble,36,23,500,2020,0.5,risky,1.62288906699996,rs
gamble,36,24,500,7290,0.3,risky,2.409050985000249,sr
gamble,36,25,500,800,0.5,sure,4.026296455999727,sr
gamble,36,26,500,3640,0.3,risky,1.322761822999837,sr
gamble,36,27,500,3010,0.3,risky,1.0961848570000257,sr
gamble,36,28,500,3160,0.4,risky,1.0387626189999537,sr
gamble,36,29,500,1670,0.3,sure,4.886153087999901,rs
gamble,36,30,500,1380,0.4,sure,1.2205644400000892,rs
gamble,36,31,500,2260,0.4,risky,2.3254854930000874,rs
gamble,36,32,500,1040,0.3,sure,1.1142058319996977,rs
gamble,36,33,500,4480,0.3,risky,2.383515770000031,rs
gamble,36,34,500,920,0.4,sure,1.2981659609999951,sr
gamble,36,35,500,1220,0.3,sure,4.192269804999796,rs
gamble,36,36,500,1960,0.4,risky,2.010562886000116,sr
gamble,36,37,500,1890,0.3,sure,1.8509027479999531,sr
gamble,36,38,500,300,1,sure,2.1944254989998626,sr
gamble,36,39,500,880,0.5,sure,1.3243217400004141,rs
gamble,36,40,500,1060,0.4,sure,3.337830316000236,sr
gamble,36,41,500,1770,0.5,risky,2.4223574050001844,rs
gamble,36,42,500,2340,0.5,risky,1.6871141010001338,rs
gamble,36,43,500,870,0.4,sure,0.9331775629998447,rs
gamble,36,44,500,3840,0.4,risky,1.3777148399999533,sr
gamble,36,45,500,700,1,risky,1.7401747229996545,sr
gamble,36,46,500,1410,0.5,sure,4.376784217000022,rs
gamble,36,47,500,760,0.5,sure,0.9874727440001152,rs
gamble,37,1,500,2540,0.3,sure,4.235662290000619,sr
gamble,37,2,500,300,1,sure,1.4601534840003296,rs
gamble,37,3,500,1170,0.5,sure,1.9158319959997243,sr
gamble,37,4,500,730,0.5,sure,2.2742692760002683,sr
gamble,37,5,500,1220,0.3,sure,1.5461720100001912,rs
gamble,37,6,500,840,0.5,sure,1.8372937859994636,rs
gamble,37,7,500,1380,0.4,sure,1.4626371650001602,sr
gamble,37,8,500,880,0.5,sure,3.5348273339996013,sr
gamble,37,9,500,920,0.4,sure,0.9792815900000278,sr
gamble,37,10,500,990,0.4,sure,0.9581966690002446,sr
gamble,37,11,500,1340,0.3,sure,0.9872872519999873,sr
gamble,37,12,500,1150,0.4,risky,1.3978794289996586,rs
gamble,37,13,500,940,0.5,risky,2.799938748000386,rs
gamble,37,14,500,4480,0.3,sure,1.9060443759999544,rs
gamble,37,15,500,1060,0.4,sure,1.464789779000057,rs
gamble,37,16,500,7290,0.3,sure,1.0713489689997004,rs
gamble,37,17,500,3640,0.3,risky,2.054600094000307,rs
gamble,37,18,500,1250,0.4,sure,1.255883120999897,rs
gamble,37,19,500,1040,0.3,sure,1.1596846470001765,sr
gamble,37,20,500,700,1,risky,1.8519184650003808,rs
gamble,37,21,500,970,0.3,sure,2.41926468299971,sr
gamble,37,22,500,2340,0.5,risky,2.5497575299996242,sr
gamble,37,23,500,800,0.5,sure,2.6100626150000608,sr
gamble,37,24,500,2650,0.4,sure,1.835632987000281,rs
gamble,37,25,500,2260,0.4,sure,1.1569050890002472,rs
gamble,37,26,500,870,0.4,sure,2.5213904379997985,rs
gamble,37,27,500,5650,0.3,risky,1.302913716999683,sr
gamble,37,28,500,1490,0.3,sure,1.8765041750002638,sr
gamble,37,29,500,1410,0.5,sure,2.3634071900005438,rs
gamble,37,30,500,760,0.5,sure,0.9110556989999168,rs
gamble,37,31,500,1080,0.5,sure,0.8935972949993811,sr
gamble,37,32,500,3840,0.4,sure,2.442276203999427,rs
gamble,37,33,500,1570,0.5,sure,0.9393068139997922,sr
gamble,37,34,500,1120,0.3,sure,2.072779617999913,rs
gamble,37,35,500,830,0.4,sure,0.7287481660005142,rs
gamble,37,36,500,1270,0.5,sure,0.7484630779999861,sr
gamble,37,37,500,3160,0.4,sure,0.8965937889997804,rs
gamble,37,38,500,1960,0.4,sure,1.2471565179994286,rs
gamble,37,39,500,1720,0.4,sure,0.6712931829997615,rs
gamble,37,40,500,2180,0.3,sure,1.014155469999423,sr
gamble,37,41,500,1770,0.5,sure,0.9130098369996631,rs
gamble,37,42,500,1530,0.4,sure,1.2619996890007315,sr
gamble,37,43,500,1670,0.3,sure,0.9893575779997263,sr
gamble,37,44,500,1890,0.3,sure,0.6639921100004358,sr
gamble,37,45,500,3010,0.3,sure,0.5918050489999587,sr
gamble,37,46,500,1000,0.5,sure,1.2901043239999126,rs
gamble,37,47,500,2020,0.5,sure,2.0892001870006425,sr
gamble,38,1,500,1270,0.5,risky,2.4446982560002652,sr
gamble,38,2,500,3160,0.4,risky,3.0861037280001256,sr
gamble,38,3,500,920,0.4,sure,1.9720005909994143,sr
gamble,38,4,500,1250,0.4,sure,2.7754843180000535,rs
gamble,38,5,500,3010,0.3,risky,3.6271883019999223,sr
gamble,38,6,500,1720,0.4,sure,3.084018002999983,rs
gamble,38,7,500,870,0.4,sure,1.7630488879995028,sr
gamble,38,8,500,970,0.3,sure,1.8543358090000766,sr
gamble,38,9,500,990,0.4,sure,2.3737359689994264,rs
gamble,38,10,500,7290,0.3,risky,2.377712141000302,rs
gamble,38,11,500,2260,0.4,risky,3.6435543400002643,rs
gamble,38,12,500,1040,0.3,sure,2.220305056000143,rs
gamble,38,13,500,880,0.5,sure,4.293958319000012,rs
gamble,38,14,500,2650,0.4,risky,1.9967833769997014,sr
gamble,38,15,500,1960,0.4,risky,2.654107627000485,rs
gamble,38,16,500,1220,0.3,sure,2.421736195000449,sr
gamble,38,17,500,1890,0.3,sure,3.2072333789992626,sr
gamble,38,18,500,940,0.5,sure,2.4240564239999003,rs
gamble,38,19,500,2340,0.5,risky,1.5607346150000012,rs
gamble,38,20,500,1340,0.3,sure,2.412097673000062,sr
gamble,38,21,500,2180,0.3,risky,1.756331806000162,rs
gamble,38,22,500,830,0.4,sure,2.7602971699998307,rs
gamble,38,23,500,800,0.5,sure,2.0913751299995056,sr
gamble,38,24,500,5650,0.3,risky,1.6088681510000242,rs
gamble,38,25,500,1770,0.5,risky,2.521920408999904,sr
gamble,38,26,500,300,1,sure,1.6377655330006746,sr
gamble,38,27,500,1410,0.5,risky,2.9656102509998163,rs
gamble,38,28,500,1670,0.3,sure,4.43224292099967,rs
gamble,38,29,500,1380,0.4,sure,4.5618836059993555,rs
gamble,38,30,500,1570,0.5,risky,1.5335917519996656,rs
gamble,38,31,500,2020,0.5,risky,1.0402903599997444,rs
gamble,38,32,500,1530,0.4,risky,1.559518126000512,rs
gamble,38,33,500,2540,0.3,risky,1.5150652199999968,rs
gamble,38,34,500,700,1,risky,1.6940121750003527,rs
gamble,38,35,500,1150,0.4,sure,3.5326551130001462,sr
gamble,38,36,500,730,0.5,sure,2.496399682999254,rs
gamble,38,37,500,760,0.5,sure,1.4063179120003042,rs
gamble,38,38,500,1170,0.5,risky,1.4957558739997694,sr
gamble,38,39,500,840,0.5,sure,1.357131424999352,rs
gamble,38,40,500,3840,0.4,risky,1.5278220010004588,rs
gamble,38,41,500,4480,0.3,risky,1.3225803570003336,rs
gamble,38,42,500,1060,0.4,sure,1.543518256000425,rs
gamble,38,43,500,3640,0.3,risky,2.3626893000000564,sr
gamble,38,44,500,1490,0.3,sure,2.0612518590005493,rs
gamble,38,45,500,1080,0.5,risky,2.0760860820000744,sr
gamble,38,46,500,1000,0.5,risky,1.3382003209999311,sr
gamble,38,47,500,1120,0.3,sure,1.8767154010001832,rs
gamble,39,1,500,2260,0.4,risky,2.776591374999043,rs
gamble,39,2,500,1530,0.4,risky,4.12352182900031,rs
gamble,39,3,500,1340,0.3,sure,2.3935889590011357,sr
gamble,39,4,500,2180,0.3,sure,2.444223566999426,sr
gamble,39,5,500,840,0.5,risky,2.9404481149995263,sr
gamble,39,6,500,1040,0.3,sure,1.6580882720008958,rs
gamble,39,7,500,1270,0.5,risky,2.1537003070006904,sr
gamble,39,8,500,760,0.5,sure,2.9178707689989096,sr
gamble,39,9,500,2020,0.5,risky,1.62019629399947,rs
gamble,39,10,500,990,0.4,risky,3.4295643329987797,rs
gamble,39,11,500,1220,0.3,sure,2.719308709998586,rs
gamble,39,12,500,800,0.5,risky,2.5170477270003175,rs
gamble,39,13,500,1080,0.5,risky,1.762026449001496,rs
gamble,39,14,500,1060,0.4,risky,2.1416831339993223,sr
gamble,39,15,500,970,0.3,sure,4.47463990200049,rs
gamble,39,16,500,1770,0.5,risky,1.722839534000741,rs
gamble,39,17,500,7290,0.3,risky,2.5195201620008447,rs
gamble,39,18,500,2540,0.3,risky,4.50193362400023,sr
gamble,39,19,500,1960,0.4,risky,2.0675809800013667,rs
gamble,39,20,500,2650,0.4,risky,1.2189606500014634,rs
gamble,39,21,500,730,0.5,sure,1.877452901999277,sr
gamble,39,22,500,1120,0.3,sure,1.6759727950011438,rs
gamble,39,23,500,1150,0.4,sure,2.0595435229988652,sr
gamble,39,24,500,3840,0.4,risky,3.2753273420003097,sr
gamble,39,25,500,3160,0.4,risky,1.898991070998818,rs
gamble,39,26,500,3010,0.3,risky,3.2809686179989512,rs
gamble,39,27,500,940,0.5,risky,3.8237582670008123,rs
gamble,39,28,500,880,0.5,sure,1.2411481069993897,rs
gamble,39,29,500,4480,0.3,risky,2.953951743000289,rs
gamble,39,30,500,1250,0.4,risky,3.7673211350011115,sr
gamble,39,31,500,1570,0.5,risky,1.52230179199978,rs
gamble,39,32,500,300,1,sure,1.3521566250001342,rs
gamble,39,33,500,1380,0.4,risky,4.356483629999275,sr
gamble,39,34,500,1170,0.5,risky,1.7364393530006055,sr
gamble,39,35,500,920,0.4,sure,2.5499807030009833,sr
gamble,39,36,500,830,0.4,sure,1.3782973010002024,sr
gamble,39,37,500,700,1,risky,1.2764429609997023,rs
gamble,39,38,500,5650,0.3,risky,1.995090843998696,sr
gamble,39,39,500,1410,0.5,risky,2.5898501530009526,sr
gamble,39,40,500,1890,0.3,sure,5.561159557999417,rs
gamble,39,41,500,1490,0.3,sure,1.357612183001038,rs
gamble,39,42,500,3640,0.3,risky,1.5133050109998294,rs
gamble,39,43,500,2340,0.5,risky,1.4230392999998003,sr
gamble,39,44,500,1000,0.5,risky,1.7522174480000103,sr
gamble,39,45,500,870,0.4,sure,4.164579759000844,rs
gamble,39,46,500,1670,0.3,sure,1.4408014620003087,sr
gamble,39,47,500,1720,0.4,risky,1.3857328510002844,sr
gamble,40,1,500,2260,0.4,risky,3.5518552029989223,sr
gamble,40,2,500,2180,0.3,sure,4.61205175699979,rs
gamble,40,3,500,1410,0.5,risky,1.7096657279998908,sr
gamble,40,4,500,880,0.5,sure,2.8284450890005246,sr
gamble,40,5,500,3640,0.3,risky,3.997050701000262,rs
gamble,40,6,500,1220,0.3,sure,1.9350353049994737,sr
gamble,40,7,500,1170,0.5,risky,2.4682855239989294,sr
gamble,40,8,500,970,0.3,sure,1.2662282900000719,sr
gamble,40,9,500,1570,0.5,risky,2.4030680190007843,rs
gamble,40,10,500,920,0.4,sure,1.9551950900004158,sr
gamble,40,11,500,2540,0.3,risky,5.831815960000313,sr
gamble,40,12,500,1040,0.3,sure,1.1198952550003014,sr
gamble,40,13,500,2020,0.5,risky,1.7329993980001746,sr
gamble,40,14,500,830,0.4,sure,1.0571859030005726,sr
gamble,40,15,500,1000,0.5,sure,1.4655143460004183,sr
gamble,40,16,500,2650,0.4,risky,2.368245368999851,rs
gamble,40,17,500,3840,0.4,risky,1.3312736739990214,rs
gamble,40,18,500,990,0.4,sure,1.0562414169999101,rs
gamble,40,19,500,1060,0.4,sure,1.5431367799992586,sr
gamble,40,20,500,1120,0.3,sure,1.3399016709990974,rs
gamble,40,21,500,800,0.5,sure,1.2714752449992375,rs
gamble,40,22,500,1960,0.4,risky,1.7344849279998016,sr
gamble,40,23,500,1670,0.3,sure,3.298871719998715,rs
gamble,40,24,500,7290,0.3,risky,1.60125556300045,sr
gamble,40,25,500,2340,0.5,risky,1.233957915999781,sr
gamble,40,26,500,940,0.5,sure,1.4431433730005665,rs
gamble,40,27,500,1250,0.4,sure,2.266289424000206,rs
gamble,40,28,500,1380,0.4,sure,2.946499720999782,sr
gamble,40,29,500,1150,0.4,sure,1.1819989619998523,sr
gamble,40,30,500,870,0.4,sure,1.3439858439996897,rs
gamble,40,31,500,1080,0.5,sure,1.628381092001291,rs
gamble,40,32,500,760,0.5,sure,1.7093170700009068,rs
gamble,40,33,500,1340,0.3,sure,1.5469625410005392,sr
gamble,40,34,500,1770,0.5,risky,1.5344325910009502,sr
gamble,40,35,500,1270,0.5,sure,4.562929173000157,rs
gamble,40,36,500,1490,0.3,sure,1.2151999800007616,sr
gamble,40,37,500,1720,0.4,risky,2.464722997001445,rs
gamble,40,38,500,5650,0.3,risky,1.391823641000883,rs
gamble,40,39,500,300,1,sure,1.4985796849996404,sr
gamble,40,40,500,730,0.5,sure,1.2317747910001344,sr
gamble,40,41,500,840,0.5,sure,2.175699233999694,rs
gamble,40,42,500,1530,0.4,sure,2.346111810000366,sr
gamble,40,43,500,700,1,risky,1.3597370679999585,sr
gamble,40,44,500,3010,0.3,risky,1.3867049670006963,rs
gamble,40,45,500,1890,0.3,sure,2.149419929000942,sr
gamble,40,46,500,4480,0.3,risky,1.4728317739991326,sr
gamble,40,47,500,3160,0.4,risky,1.367823018999843,rs
gamble,41,1,500,2340,0.5,risky,1.8096012530004373,sr
gamble,41,2,500,830,0.4,sure,3.131954961001611,rs
gamble,41,3,500,1770,0.5,risky,2.2572922500003187,sr
gamble,41,4,500,3160,0.4,risky,2.120891564998601,sr
gamble,41,5,500,1150,0.4,risky,3.879390294998302,sr
gamble,41,6,500,5650,0.3,risky,3.181544135000877,sr
gamble,41,7,500,1250,0.4,risky,4.016960889999609,sr
gamble,41,8,500,7290,0.3,risky,2.35467602800054,sr
gamble,41,9,500,990,0.4,sure,2.9991833770000085,sr
gamble,41,10,500,760,0.5,sure,2.2094966180011397,rs
gamble,41,11,500,3640,0.3,risky,3.403709375001199,sr
gamble,41,12,500,2650,0.4,risky,1.8935822589992313,sr
gamble,41,13,500,1530,0.4,sure,4.428112015000806,rs
gamble,41,14,500,2260,0.4,risky,3.581114181997691,sr
gamble,41,15,500,1340,0.3,sure,3.5683893370005535,rs
gamble,41,16,500,1670,0.3,risky,6.260118741000042,rs
gamble,41,17,500,1570,0.5,risky,1.6762252180014912,rs
gamble,41,18,500,1960,0.4,risky,1.4990168570002425,rs
gamble,41,19,500,1890,0.3,risky,1.9699828560005699,rs
gamble,41,20,500,1040,0.3,sure,2.0524101259979943,rs
gamble,41,21,500,3010,0.3,risky,1.925877940000646,rs
gamble,41,22,500,4480,0.3,risky,1.449805665997701,sr
gamble,41,23,500,1410,0.5,risky,1.4906843259996094,rs
gamble,41,24,500,2180,0.3,risky,2.3289178699997137,sr
gamble,41,25,500,970,0.3,sure,3.023071465002431,rs
gamble,41,26,500,1080,0.5,risky,2.0241581040027086,rs
gamble,41,27,500,2540,0.3,risky,2.793525598000997,sr
gamble,41,28,500,920,0.4,sure,2.2848152489968925,rs
gamble,41,29,500,1000,0.5,risky,5.9877797970002575,sr
gamble,41,30,500,880,0.5,sure,2.8864639989988063,rs
gamble,41,31,500,3840,0.4,risky,2.645956009000656,sr
gamble,41,32,500,940,0.5,sure,2.670100270999683,rs
