task,id,trial,order,ori_mean,ori_var,judge,answer,result,judge_rt,line_pos,payoff_solo,payoff_jitter,payoff_group,choice,choice_rt,option_pos,rating,rating_rt,rating_init,rating_history,iti
group,1,1,post,-3,16,anticlockwise,anticlockwise,correct,0.6616537179997977,ac,940,-10,500,solo,0.8170910369999547,gs,5,5.159005241999694,4,"[(4, 0.00035887299964088015), (5, 1.2720192990000214), (5, 5.15994044099989)]",0.5120623925685619
group,1,2,post,3,32,anticlockwise,clockwise,wrong,0.8280427649997364,ac,1040,10,500,solo,0.6100462239992339,gs,4,1.9669941739994101,6,"[(6, 0.0004899539999314584), (5, 0.6880919189998167), (4, 0.9599056349998136), (4, 1.9679089230003228)]",0.5810102974735998
group,1,3,post,3,64,anticlockwise,clockwise,wrong,0.6601982500005761,ac,1270,-10,500,solo,1.2640363359996627,sg,3,3.091780063000442,5,"[(5, 0.00047820600047998596), (4, 0.4528542180005388), (3, 0.676535010000407), (3, 3.0926976509999804)]",0.5747329831628044
group,1,4,pre,-3,32,anticlockwise,anticlockwise,correct,0.6731950260000303,ac,850,10,500,solo,1.6104286750005485,gs,5,3.2773726800005534,1,"[(1, 0.0004865339997195406), (2, 0.9902950890000284), (3, 1.4063894720002281), (4, 1.5822214460004034), (5, 1.7754018650002763), (5, 3.278382239000166)]",0.48504753841784326
group,1,5,post,3,16,clockwise,clockwise,correct,0.8355209600003946,ac,550,-10,500,solo,1.5448644850002893,gs,4,2.064728054000625,5,"[(5, 0.00048001100003602915), (4, 0.6896605009997074), (4, 2.065373169999475)]",0.45420216026859644
group,1,6,post,-3,8,anticlockwise,anticlockwise,correct,0.7542993109991585,ac,770,0,500,solo,1.386581648000174,sg,6,1.2417266080001355,3,"[(3, 0.00047541000003548106), (4, 0.5706492189992787), (5, 0.746622231999936), (6, 0.9386498249996293), (6, 1.242735367000023)]",0.5671201641486217
group,1,7,post,3,8,clockwise,clockwise,correct,0.7691460329997426,ac,940,-10,500,solo,1.064908796999589,gs,6,1.427855508999528,5,"[(5, 0.00047899800028972095), (6, 1.012579320000441), (6, 1.428657555999962)]",0.45272282410712
group,1,8,post,-3,32,clockwise,anticlockwise,wrong,1.7465506230000756,ac,500,-10,500,group,2.3393872960004956,sg,3,1.5961026260001745,1,"[(1, 0.00048665899976185756), (2, 0.46120178300043335), (3, 0.6691544320001412), (3, 1.5971362050004245)]",0.47253724702137384
group,1,9,post,-3,64,anticlockwise,anticlockwise,correct,0.6942759639996439,ac,770,-10,500,solo,0.8963539309997941,sg,4,2.0195411820004665,1,"[(1, 0.0004805429998668842), (2, 0.724534801000118), (3, 0.9645074899999599), (4, 1.636512056000356), (4, 2.0203539989997807)]",0.42129570453187887
group,1,10,post,3,32,clockwise,clockwise,correct,0.9884733590006363,ca,770,10,500,solo,0.5877258079999592,sg,2,2.506544063000547,6,"[(6, 0.0004849239994655363), (5, 0.49164689799999906), (4, 0.6834367849996852), (3, 1.627474918000189), (2, 1.8834170350000932), (2, 2.5075976010002705)]",0.4356907773562686
group,1,11,post,-3,16,anticlockwise,anticlockwise,correct,0.6548616320005749,ac,1270,10,500,solo,0.635579644000245,sg,4,1.5920053589998133,2,"[(2, 0.0004886330007138895), (3, 0.37705291700058297), (4, 1.112934726000276), (4, 1.5929950469999312)]",0.46501829839435954
group,1,12,post,3,64,clockwise,clockwise,correct,0.943925833999856,ca,700,-10,500,solo,0.7048338659997171,sg,2,1.8191353270003674,6,"[(6, 0.00047177299984468846), (5, 0.38015146300040215), (4, 0.588005391000479), (3, 0.9720324720001372), (2, 1.1800614610001503), (2, 1.819956454000021)]",0.4762220104918816
group,1,13,post,-3,32,anticlockwise,anticlockwise,correct,0.6831606440000542,ac,1270,10,500,solo,1.0146679839999706,gs,3,2.627973022000333,3,"[(3, 0.00047601799997210037), (2, 2.0049580849999984), (3, 2.3888729990003412), (3, 2.6287469300004886)]",0.44509607519597716
group,1,14,post,3,8,clockwise,clockwise,correct,0.7347120630001882,ca,500,-10,500,group,2.1039805219998016,sg,6,1.4021434790001877,2,"[(2, 0.0005831649996252963), (3, 0.37923346099978517), (4, 0.5551129509995008), (5, 0.7149808039994241), (6, 0.9070388370000728), (6, 1.4031728359996123)]",0.5819266080627514
group,1,15,pre,3,16,clockwise,clockwise,correct,0.862389818000338,ca,1150,-10,500,solo,1.3937590759996965,gs,6,1.7940529459992831,2,"[(2, 0.00047498000003542984), (3, 0.8829352820002896), (4, 1.122970487999737), (5, 1.3309878740001295), (6, 1.538780191999649), (6, 1.7949711170003866)]",0.5556801259090468
group,1,16,post,3,16,clockwise,clockwise,correct,1.2288900180001292,ac,940,0,500,solo,0.7868795489994227,sg,5,2.2502066739998554,2,"[(2, 0.0005053450004197657), (3, 0.7472300679992259), (4, 1.083217520999824), (5, 1.819006626999908), (5, 2.2510980179995386)]",0.5834985725172988
group,1,17,post,-3,64,anticlockwise,anticlockwise,correct,2.632344772000579,ac,1150,-10,500,solo,1.1739497979997395,gs,3,1.5979997109998294,6,"[(6, 0.000480427000184136), (5, 0.46306689199991524), (4, 0.6710366259994771), (3, 0.863007297999502), (3, 1.5989840120000736)]",0.4477124966242671
group,1,18,post,-3,8,anticlockwise,anticlockwise,correct,0.657510543999706,ac,1400,-10,500,solo,1.34317821500008,gs,5,2.5110205319997476,5,"[(5, 0.0004885909993390669), (5, 2.5119200890003412)]",0.571153116531641
group,1,19,post,3,8,clockwise,clockwise,correct,0.8787450469999385,ca,1270,-10,500,solo,0.8814047979994939,gs,6,1.796983760999865,1,"[(1, 0.00047075200018298347), (2, 0.8219227929994304), (3, 1.013899100999879), (4, 1.1578284319994054), (5, 1.3659915419993922), (6, 1.5418888809999771), (6, 1.7978831609998451)]",0.5705596449903008
group,1,20,post,3,64,anticlockwise,clockwise,wrong,0.9779215839998869,ca,550,0,500,solo,1.4730044080006337,gs,3,3.2446528740001668,6,"[(6, 0.00047114500011957716), (5, 0.44568552900000213), (4, 0.7175298339998335), (3, 0.925660402000176), (2, 2.0455238360000294), (3, 2.8615909270001794), (3, 3.2455290799998693)]",0.5480323135857762
group,1,21,post,3,32,clockwise,clockwise,correct,0.863426765999975,ac,1150,10,500,solo,0.6752361049993851,gs,4,1.6138549560000683,3,"[(3, 0.00048358700041717384), (4, 0.8468981880005231), (4, 1.6147948050002014)]",0.5574826877436878
group,1,22,post,-3,16,anticlockwise,anticlockwise,correct,0.6466950929998347,ac,550,-10,500,solo,1.2193873380001605,gs,3,1.4171677490003276,1,"[(1, 0.0004928559992549708), (2, 0.42609907899986865), (3, 0.6660456310000882), (3, 1.418037450999691)]",0.4323031498334248
group,1,23,post,-3,32,anticlockwise,anticlockwise,correct,0.8195405859996754,ac,770,10,500,solo,0.6015302510004403,sg,4,1.5116758710000795,4,"[(4, 0.0004893549994449131), (4, 1.5125571470007344)]",0.594016647039353
group,1,24,post,-3,64,clockwise,anticlockwise,wrong,0.9489455709999675,ca,700,0,500,solo,1.0785881660003724,gs,2,1.825880540000071,1,"[(1, 0.00047045199971762486), (2, 0.3868443909996131), (1, 1.2187073589993815), (2, 1.586739824999313), (2, 1.826721360999727)]",0.40172526890770754
group,1,25,post,3,16,clockwise,clockwise,correct,0.9795722540002316,ac,1040,-10,500,solo,0.9624402459994599,gs,5,2.7381559830000697,6,"[(6, 0.00047964599980332423), (5, 0.7870013440006005), (5, 2.738925458000267)]",0.4006443863816502
group,1,26,post,-3,8,anticlockwise,anticlockwise,correct,1.1633881679999831,ac,850,0,500,solo,0.899285950000376,gs,3,2.0045478189995265,2,"[(2, 0.00047292399995058076), (3, 1.4135589020006591), (3, 2.005394884999987)]",0.5094704912470429
group,1,27,pre,-3,8,anticlockwise,anticlockwise,correct,0.7806844309998269,ca,640,0,500,solo,2.455020229999718,gs,6,2.4989291299998513,4,"[(4, 0.00047883300067042), (5, 1.4119339250000849), (6, 1.9077292789997955), (6, 2.4997995040002934)]",0.5017685544490085
group,1,28,post,-3,8,anticlockwise,anticlockwise,correct,1.3790304159992957,ca,640,0,500,solo,1.1066749629999322,gs,3,1.1002747599995928,2,"[(2, 0.0004834279998249258), (3, 0.6693395169995711), (3, 1.101137531999484)]",0.5852463092264021
group,1,29,post,3,64,clockwise,clockwise,correct,0.9966937180006425,ac,500,-10,500,group,3.8430366140000842,sg,3,2.1434042800001407,2,"[(2, 0.0004792970003109076), (3, 1.3444317049998062), (3, 2.144209993000004)]",0.5734970537139429
group,1,30,post,-3,64,clockwise,anticlockwise,wrong,1.3447886980002295,ca,1040,0,500,solo,0.9297145470000032,sg,1,1.9546455569998216,4,"[(4, 0.00048606899963488104), (3, 0.6116678079997655), (2, 1.4595622060005553), (1, 1.7155950699998357), (1, 1.9554395470004238)]",0.4736750623573851
group,1,31,post,3,8,clockwise,clockwise,correct,0.7934921610003585,ac,550,0,500,solo,1.2482014050001453,gs,6,1.4281892669996523,1,"[(1, 0.0004761359996336978), (2, 0.2932565119999708), (3, 0.48507422800048516), (4, 0.661100377999901), (5, 0.8211024299998826), (6, 1.0292315590004364), (6, 1.429057639000348)]",0.5501874381811861
group,1,32,pre,3,32,clockwise,clockwise,correct,0.99896894700032135,ca,770,10,500,solo,1.0671799140000076,sg,4,1.3166423600005146,5,"[(5, 0.00048324099952878896), (4, 0.7576006729996152), (4, 1.317441060999954)]",0.5337892685399719
group,1,33,post,-3,32,anticlockwise,anticlockwise,correct,0.6601669150004454,ac,940,10,500,solo,0.6406141629995545,sg,4,1.6776534589998846,5,"[(5, 0.0005131990001245867), (4, 0.4946050369999284), (4, 1.6785702409997612)]",0.557892489355471
group,1,34,post,-3,16,anticlockwise,anticlockwise,correct,1.8860717020006632,ca,1150,-10,500,solo,0.7938295050007582,sg,4,2.063646646000052,3,"[(3, 0.0005192879998503486), (4, 0.8007408839994241), (4, 2.0645779829992534)]",0.5579700323035144
group,1,35,post,3,16,clockwise,clockwise,correct,0.7562699820000489,ac,1150,0,500,solo,0.6532486209998751,sg,6,1.1771009379999668,3,"[(3, 0.00048294099997292506), (4, 0.31412784500025737), (5, 0.5059748510002464), (6, 0.6820782690001579), (6, 1.1780162029999701)]",0.5047893627037852
group,1,36,post,3,32,clockwise,clockwise,correct,0.863374919999842,ca,940,0,500,solo,1.0108262009998725,gs,5,1.2166360739993252,1,"[(1, 0.00047424300009879516), (2, 0.2897026150003512), (3, 0.46546534200024325), (4, 0.657510392000404), (5, 0.8016589560002103), (5, 1.2175993540004129)]",0.5252319196595304
group,1,37,post,3,16,anticlockwise,clockwise,wrong,1.2081641549993947,ca,1400,10,500,solo,1.022717595999893,gs,4,0.6357969159998902,3,"[(3, 0.00047296799948526314), (4, 0.3328049709998595), (4, 0.6366416290002235)]",0.455977191805564
group,1,38,post,-3,8,anticlockwise,anticlockwise,correct,0.8281397500004459,ca,700,10,500,solo,0.8815513780000401,gs,5,1.2037515349993555,1,"[(1, 0.00046801799999229843), (2, 0.3728128419998029), (3, 0.5646919569999227), (4, 0.7407883930000025), (5, 0.932646948999718), (5, 1.2045952529997521)]",0.43377529713329116
group,1,39,post,-3,64,anticlockwise,anticlockwise,correct,0.8104903899993587,ac,500,0,500,solo,3.104285063000134,sg,2,1.354718350999974,2,"[(2, 0.0004920279998259502), (2, 1.3555528509996293)]",0.5054931814932946
group,1,40,post,3,8,clockwise,clockwise,correct,1.0701904500001547,ac,590,10,500,solo,0.9698741730007896,gs,4,2.409508146999542,4,"[(4, 0.0004831830001421622), (4, 2.410574964999796)]",0.45254372712470914
group,1,41,post,3,64,clockwise,clockwise,correct,0.8291510949993608,ca,590,0,500,solo,0.8024053460003415,sg,4,3.608998781000082,2,"[(2, 0.0004780199997185264), (3, 0.3299015379998309), (4, 0.5217013709998355), (3, 1.6740207499997268), (4, 2.4578571729998657), (5, 2.6498617609995563), (4, 3.3379790299995875), (4, 3.6098069439995015)]",0.564679292388952
group,1,42,post,3,32,clockwise,clockwise,correct,1.0114590720004344,ac,500,10,500,solo,1.4249962670000969,sg,4,1.4380864770000699,4,"[(4, 0.00048494099974050187), (4, 1.4391031490004025)]",0.40283634098750853
group,1,43,pre,3,8,clockwise,clockwise,correct,0.7473261270006333,ac,1040,-10,500,solo,1.3528026150006554,gs,6,1.507862638000006,5,"[(5, 0.00047839000035310164), (6, 1.2048873979993004), (6, 1.5087370549999832)]",0.45392331188199103
group,1,44,post,-3,16,anticlockwise,anticlockwise,correct,0.9928736529991511,ac,770,0,500,solo,1.0719921299996713,gs,5,2.698875099000361,1,"[(1, 0.0004719160006061429), (2, 0.5557777179992627), (3, 0.7477194059993053), (4, 0.9717941239996435), (5, 1.1638771879997876), (5, 2.699687558999358)]",0.4350534200657382
group,1,45,post,-3,32,anticlockwise,anticlockwise,correct,0.6425198220003949,ac,1040,-10,500,solo,0.9116226839996671,sg,4,1.089525744000639,5,"[(5, 0.00047792199984542094), (4, 0.6424087850000433), (4, 1.0904692859994611)]",0.5765344141099896
group,1,46,post,-3,8,anticlockwise,anticlockwise,correct,0.7287354049994974,ac,500,10,500,solo,1.0416970930000389,gs,4,1.710125022000284,6,"[(6, 0.00047855199954938143), (5, 0.6073933819998274), (4, 1.1355301040002814), (4, 1.7113734450003903)]",0.5911191204456507
group,1,47,pre,-3,8,anticlockwise,anticlockwise,correct,0.9651903490002951,ca,700,10,500,solo,0.9682820500001981,sg,4,2.5009304690001954,3,"[(3, 0.000481865999972797), (4, 0.9979963769992537), (4, 2.501844992999395)]",0.5731142010619776
group,1,48,post,-3,32,anticlockwise,anticlockwise,correct,0.7410221919999458,ac,850,10,500,solo,0.7339763959998891,sg,3,1.5108463080005095,2,"[(2, 0.0004840259998672991), (3, 0.48778588400000444), (3, 1.5117883080001775)]",0.5867616155233408
group,1,49,post,-3,64,anticlockwise,anticlockwise,correct,1.0858106539999426,ca,1400,-10,500,solo,1.3540857409998353,gs,4,1.7852290069995433,6,"[(6, 0.0004874030000792118), (5, 0.5542165739998381), (4, 0.8581500279997272), (3, 1.0662126319994059), (4, 1.5462823409998236), (4, 1.7861297169993122)]",0.5683355515751076
group,1,50,post,-3,16,anticlockwise,anticlockwise,correct,0.9175081870007489,ac,700,-10,500,solo,0.7748889190006594,gs,4,1.3744904100003623,4,"[(4, 0.0004795849999936763), (4, 1.3752934649992312)]",0.5966995035879443
group,1,51,post,3,8,clockwise,clockwise,correct,0.875911264000024,ac,640,-10,500,solo,1.0074262469997848,gs,6,0.6526659979999749,6,"[(6, 0.0004749629997604643), (6, 0.30172356000002765), (6, 0.6534142640002756)]",0.5503982153350195
group,1,52,post,3,16,clockwise,clockwise,correct,0.8736773959999482,ca,700,10,500,solo,0.8470190500001991,gs,6,0.5305241169999135,6,"[(6, 0.0004761770005643484), (6, 0.5315831739999339)]",0.48688060504901015
group,1,53,post,3,64,anticlockwise,clockwise,wrong,0.7691027780001605,ac,1150,0,500,solo,0.6486082100000203,sg,2,2.6296590390002166,3,"[(3, 0.0004777129997819429), (2, 1.894652634000522), (2, 2.630553357000281)]",0.574877106221086
group,1,54,post,3,32,anticlockwise,clockwise,wrong,0.8988872780000747,ca,1270,-10,500,solo,0.6139918660001058,sg,1,0.7234318090004308,2,"[(2, 0.0004961499998898944), (1, 0.48451685500003805), (1, 0.7242868240000462)]",0.5057385612380527
group,1,55,post,-3,8,anticlockwise,anticlockwise,correct,0.7179416489998403,ac,590,10,500,solo,1.0008014189997994,gs,6,1.1265635319996363,4,"[(4, 0.00048705600056564435), (5, 0.4394864129999405), (6, 0.6954965799995989), (6, 1.127307849999852)]",0.5606935661263096
group,1,56,post,-3,32,anticlockwise,anticlockwise,correct,1.4541730210003152,ac,1150,-10,500,solo,0.971803952999835,gs,3,1.194336155000201,4,"[(4, 0.0004895980000583222), (3, 0.5873954880007659), (3, 1.1950442360002853)]",0.5400636467756588
group,1,57,pre,-3,32,clockwise,anticlockwise,wrong,1.1607870429998002,ac,500,0,500,solo,2.7988453770003616,gs,3,2.384162035999907,4,"[(4, 0.0004723570000351174), (3, 1.9210763820001375), (3, 2.3849419759999364)]",0.4323282977942124
group,1,58,post,-3,64,clockwise,anticlockwise,wrong,0.6480542509998486,ac,1270,-10,500,solo,0.7407989020002788,gs,2,0.6535568899998907,2,"[(2, 0.0005202989996178076), (2, 0.6545148129998779)]",0.4968577443435598
group,1,59,post,3,32,clockwise,clockwise,correct,0.5411023189999469,ac,590,-10,500,solo,0.7977844999995796,gs,4,1.0916841949992886,2,"[(2, 0.0005968420000499464), (3, 0.6286116219998803), (4, 0.8365859810000984), (4, 1.0925237299998116)]",0.4407253766007934
group,1,60,post,3,64,anticlockwise,clockwise,wrong,0.5892030940003679,ac,1040,0,500,solo,0.5724136650005676,sg,3,2.571742871999959,6,"[(6, 0.0004782559999512159), (5, 0.444948530000147), (4, 0.6528052319999915), (3, 2.2527267960003883), (3, 2.5726528149998558)]",0.5408871251172023
group,1,61,post,3,8,clockwise,clockwise,correct,0.8138603170000351,ca,850,10,500,solo,0.6118827250002141,sg,5,1.088696023999546,4,"[(4, 0.00047215599988703616), (5, 0.5777765430002546), (5, 1.089654903000337)]",0.45763862724759546
group,1,62,post,3,16,clockwise,clockwise,correct,1.7073333100006494,ca,1270,-10,500,solo,0.6864126729997224,sg,5,1.5922234539993951,3,"[(3, 0.0004926860001432942), (4, 0.6492164009996486), (5, 0.8572156269992774), (5, 1.593154334999781)]",0.5334273513798722
group,1,63,post,-3,16,anticlockwise,anticlockwise,correct,1.4206690500004697,ca,1400,10,500,solo,0.9222585729994535,gs,3,1.9803709900006652,6,"[(6, 0.00047859700043773046), (5, 0.4613825810001799), (4, 0.6691267100004552), (3, 1.5012548260001495), (3, 1.9811336860002484)]",0.5873068864485913
group,1,64,post,-3,8,anticlockwise,anticlockwise,correct,0.5331308260001606,ac,1150,-10,500,solo,0.9182673720006278,gs,5,1.3835735849997945,1,"[(1, 0.0004822470000362955), (2, 0.4086629580006047), (3, 0.6002859260006517), (4, 0.7763947880002888), (5, 0.9536263179998059), (5, 1.3844340510004258)]",0.4575261612443438
group,1,65,post,3,64,clockwise,clockwise,correct,1.2733531530002438,ac,770,-10,500,solo,0.8933899970006678,sg,1,1.6636668450000798,1,"[(1, 0.0004808690000572824), (1, 0.2885544340006163), (2, 1.0727383540006485), (1, 1.328567082000518), (1, 1.664513423000244)]",0.4541677280951146
group,1,66,post,3,32,clockwise,clockwise,correct,2.882067437999467,ca,1400,-10,500,solo,0.6930143419995147,sg,4,1.1682303460002004,4,"[(4, 0.0005148950003786013), (4, 1.169150042000183)]",0.5466484585076843
group,1,67,post,-3,16,anticlockwise,anticlockwise,correct,1.2218168110002807,ca,590,-10,500,solo,1.003799593999247,gs,4,1.1307430789993305,1,"[(1, 0.0004766629999721772), (2, 0.39565037499960454), (3, 0.5874905359996774), (4, 0.779691714999899), (4, 1.131572695999239)]",0.5437754073327266
group,1,68,post,-3,64,clockwise,anticlockwise,wrong,1.3281636300007449,ca,640,-10,500,solo,0.7372972900002424,sg,3,2.314601472000504,1,"[(1, 0.00047334899954876164), (2, 0.5556009140000242), (3, 1.0674979679997705), (2, 1.5634593209997547), (3, 1.9474866569998994), (3, 2.3154122039995855)]",0.5772560491332561
group,1,69,post,3,16,clockwise,clockwise,correct,0.6437471769995682,ac,640,10,500,solo,0.6248968350000723,sg,4,0.6378423340001973,3,"[(3, 0.000492435000523983), (4, 0.335016025999721), (4, 0.6386425809996581)]",0.5248400277730808
group,1,70,post,3,8,clockwise,clockwise,correct,0.9886638680000033,ac,770,0,500,solo,0.8920435879999786,gs,6,1.4391481009997733,5,"[(5, 0.0004926759993395535), (6, 0.24037874600071518), (5, 0.8641232440004387), (6, 1.248199418000695), (6, 1.4399261960006697)]",0.4495195840433074
group,1,71,pre,3,8,clockwise,clockwise,correct,0.9618707290001112,ca,590,-10,500,solo,1.4785074709998298,gs,5,2.25689149200025,3,"[(3, 0.00047642899971833685), (4, 0.6738788439997734), (5, 0.8978289080005197), (6, 1.2339040229999227), (5, 1.7459702550004295), (5, 2.2575970140005666)]",0.5276583229068319
group,1,72,post,-3,32,anticlockwise,anticlockwise,correct,0.7328510470006222,ac,1400,-10,500,solo,0.5974971460000233,sg,3,2.307964765000179,4,"[(4, 0.00047776599967619404), (3, 2.004972816999725), (3, 2.3089444709994495)]",0.5360841375066864
group,1,73,post,-3,64,anticlockwise,anticlockwise,correct,1.0222503109998797,ac,850,10,500,solo,0.7639279100003478,sg,2,1.123968646999856,1,"[(1, 0.0006155889996080077), (2, 0.5168876039997485), (2, 1.1247795970002699)]",0.4890768427211352
group,1,74,post,3,64,clockwise,clockwise,correct,0.6224211360004119,ac,1400,-10,500,solo,0.556195041999672,sg,3,2.6520652139997765,2,"[(2, 0.00048153700026887236), (3, 0.4132233790005557), (2, 0.8449629480001022), (3, 1.2451331390002451), (4, 1.581035631999839), (3, 2.173068210000565), (3, 2.6529511899998397)]",0.48125434547990187
group,1,75,post,-3,16,anticlockwise,anticlockwise,correct,0.9727030809999633,ca,640,10,500,solo,0.6043471479997606,sg,4,0.8901059169993459,2,"[(2, 0.00047685600020486163), (3, 0.44326129000000947), (4, 0.6190109099998153), (4, 0.8909602820003784)]",0.41860052607257725
group,1,76,post,-3,8,anticlockwise,anticlockwise,correct,0.8968068860003768,ca,940,-10,500,solo,0.6288615800003754,sg,5,3.0569528269998045,6,"[(6, 0.0004808630001207348), (5, 0.6260140490003323), (4, 0.8660371699997995), (5, 2.401935548000438), (5, 3.057789870000306)]",0.4044978541579857
group,1,77,post,3,32,clockwise,clockwise,correct,0.8299508939999214,ca,640,0,500,solo,0.5303675639997891,sg,5,1.9073423649997494,1,"[(1, 0.000480511000205297), (2, 0.4204728790000445), (3, 0.5803346060001786), (4, 0.7723865389998537), (5, 1.7163320429999658), (5, 1.9080565479998768)]",0.5001515924377076
group,1,78,pre,-3,16,anticlockwise,anticlockwise,correct,0.7074669089997769,ac,1400,10,500,solo,0.9821380040002623,sg,5,1.276733110999885,3,"[(3, 0.0004779110004164977), (4, 0.5418033670002842), (5, 0.7817538330000389), (5, 1.2776401330002045)]",0.5653308315976635
group,1,79,post,3,8,clockwise,clockwise,correct,0.7366061760003504,ca,1150,0,500,solo,0.5377440419997583,sg,6,2.538687132000632,1,"[(1, 0.000645645000076911), (2, 0.47572850699998526), (3, 0.6835139739996521), (4, 0.8595075439998254), (5, 1.0355030310001894), (6, 1.3877196849998654), (5, 1.8354553560002387), (6, 2.235511605999818), (6, 2.5396006820001276)]",0.5178282444295612
group,1,80,post,3,16,clockwise,clockwise,correct,1.4977078949996212,ac,850,10,500,solo,0.596346877000542,sg,3,1.2506580650006072,2,"[(2, 0.00047690100018371595), (3, 0.6275454490005359), (3, 1.2514070330007598)]",0.5693915486720952
group,1,81,post,-3,32,anticlockwise,anticlockwise,correct,0.9688987350000389,ca,640,10,500,solo,0.5050487920007072,sg,1,1.6270261310000933,5,"[(5, 0.00048335399969801074), (4, 0.41206004499963456), (3, 0.6359037530000933), (2, 0.8439744219995191), (1, 1.3240099069998905), (1, 1.6279317319995243)]",0.46934795912530325
group,1,82,post,-3,8,anticlockwise,anticlockwise,correct,1.203710640999816,ca,1270,10,500,solo,0.618384896999487,sg,6,0.5836404410001705,5,"[(5, 0.0005139509994478431), (6, 0.20084086099996057), (6, 0.5844436269999278)]",0.409739492802159
group,1,83,post,-3,16,anticlockwise,anticlockwise,correct,0.9219711910000115,ca,1040,-10,500,solo,1.0038771700001234,gs,4,1.114720712000235,1,"[(1, 0.0005471029999171151), (2, 0.44383508099963365), (3, 0.6356774149999183), (4, 0.7956403400003182), (4, 1.115519344999484)]",0.43022618625076353
group,1,84,post,3,16,clockwise,clockwise,correct,0.6726889820001816,ca,770,-10,500,solo,0.6362526659995638,sg,4,1.673762139000246,1,"[(1, 0.0004793819998667459), (2, 0.5229180139995151), (3, 0.714703906000068), (4, 0.9226324800001748), (4, 1.6745155759999761)]",0.5948588828708115
group,1,85,post,-3,64,clockwise,anticlockwise,wrong,1.1806632450006873,ac,940,0,500,solo,0.8535241480003606,gs,2,0.8570588709999356,1,"[(1, 0.0004767929995068698), (2, 0.5541550150001058), (2, 0.8580266110002412)]",0.4779514426584585
group,1,86,post,3,32,clockwise,clockwise,correct,1.0820128519999344,ac,550,-10,500,solo,1.5744457079999847,gs,3,1.5018656009997358,6,"[(6, 0.0004831689993807231), (6, 0.35086189300000115), (5, 0.606773759999669), (4, 0.8149808250000206), (3, 1.0227710600001956), (3, 1.5027315130000716)]",0.5660338472175502
group,1,87,pre,-3,64,clockwise,anticlockwise,wrong,1.2752372049999394,ac,550,-10,500,solo,1.792118407000089,sg,1,1.5815028189999794,5,"[(5, 0.00047721699957037345), (4, 0.5423647190000338), (3, 0.7664543299997604), (2, 0.942411264999464), (1, 1.294502652999654), (1, 1.5821445789997597)]",0.5980608811006306
group,1,88,post,3,64,clockwise,clockwise,correct,0.533660095000414,ac,640,0,500,solo,0.8064263749993188,gs,3,1.0843711489997077,4,"[(4, 0.0004802650000783615), (3, 0.5094918620006865), (3, 1.0853340990006473)]",0.5009108174319066
group,1,89,post,-3,32,clockwise,anticlockwise,wrong,1.0629095840004084,ca,590,-10,500,solo,0.7707648410005277,sg,4,0.7944575880001139,4,"[(4, 0.0004773029995703837), (4, 0.7954606539997258)]",0.5357179160474124
group,1,90,post,3,8,clockwise,clockwise,correct,0.7394860860003973,ca,700,0,500,solo,0.65269829799945,sg,5,1.6727350390001448,6,"[(6, 0.00048812000022735447), (5, 0.5696100049999586), (4, 0.7617163619997882), (5, 1.337737761000426), (5, 1.6734808589999375)]",0.4565224131014274
group,1,91,post,-3,16,anticlockwise,anticlockwise,correct,0.6833648190004169,ac,850,0,500,solo,0.8397214529995836,gs,6,1.2435631099997408,5,"[(5, 0.0004669089994422393), (6, 1.0045673499998884), (6, 1.2444929650000631)]",0.5286820722866753
group,1,92,post,-3,8,anticlockwise,anticlockwise,correct,1.2028791020002245,ca,1040,10,500,solo,0.6978610530004516,sg,6,1.2352293519998057,3,"[(3, 0.0005483260001710732), (4, 0.4522709510001732), (5, 0.6440409280003223), (6, 0.8201876030007043), (6, 1.2360671970000112)]",0.4490328693596084
group,1,93,post,3,8,anticlockwise,clockwise,wrong,1.861867216999599,ac,1400,0,500,solo,0.864887997000551,gs,3,3.1244229309995717,3,"[(3, 0.0004785010005434742), (4, 0.5494478440004968), (3, 1.4773746560003929), (3, 3.1253102350001427)]",0.5906421550375478
group,1,94,post,3,32,clockwise,clockwise,correct,0.8753286099999968,ca,700,-10,500,solo,0.974411033999786,sg,2,0.73414540199974,3,"[(3, 0.0004908509999950184), (2, 0.4952157410007203), (2, 0.7351162360000671)]",0.5882638393631356
group,1,95,post,3,16,clockwise,clockwise,correct,0.6637514969997937,ac,590,-10,500,solo,0.851589920999686,gs,4,1.3995837100001154,3,"[(3, 0.00047753299986652564), (4, 0.2966877849994489), (5, 0.6965962289996241), (4, 1.1125777199995355), (4, 1.4005496019999555)]",0.4871191644484814
group,1,96,post,-3,32,anticlockwise,anticlockwise,correct,0.6432211030005419,ac,550,0,500,solo,1.11967476800055,sg,4,1.3371216470004583,3,"[(3, 0.00048154700016311835), (4, 0.7461742080004115), (4, 1.3380229160002273)]",0.5973884221133863
group,1,97,pre,3,64,anticlockwise,clockwise,wrong,1.6671202020006604,ca,1270,-10,500,solo,1.0461570699999356,gs,4,3.4468248610000956,3,"[(3, 0.0004682590006268583), (4, 0.9998904370004311), (3, 1.3198274550004498), (2, 1.5277320189998136), (3, 2.6637795079996067), (4, 2.9998595409997506), (4, 3.447686256000452)]",0.48977839615116936
group,1,98,post,3,64,anticlockwise,clockwise,wrong,0.7114457920006316,ac,940,-10,500,solo,0.801550584999859,gs,2,0.8874384709997685,3,"[(3, 0.0004786489998878096), (2, 0.5204377319996638), (2, 0.888411910999821)]",0.42083511270949325
group,1,99,post,-3,64,anticlockwise,anticlockwise,correct,0.6979356990004817,ac,550,0,500,solo,1.0607440740004677,sg,2,1.1848059249996368,4,"[(4, 0.0004806500000995584), (3, 0.46591816199997993), (2, 0.7057790779999777), (2, 1.1856964520002293)]",0.5211167215952179
group,1,100,post,-3,32,anticlockwise,anticlockwise,correct,2.0846602940000594,ca,700,0,500,solo,1.432474108999486,gs,4,1.477066047000335,3,"[(3, 0.0004812950000996352), (4, 0.9019030610006666), (4, 1.478034583000408)]",0.584916681772644
group,1,101,post,3,16,clockwise,clockwise,correct,2.753004301999681,ca,500,10,500,solo,1.641617249999399,gs,1,1.5825514669995755,5,"[(5, 0.00048012299976107897), (4, 0.4155973079996329), (3, 0.6554205399997954), (2, 0.8635526939997362), (1, 1.1034069050001563), (1, 1.5834602180002548)]",0.501133487974894
group,1,102,post,3,32,clockwise,clockwise,correct,0.741552497000157,ac,850,-10,500,solo,0.8461467879997144,gs,5,1.9063728370001627,3,"[(3, 0.00048432699986733496), (4, 0.49941318000037427), (5, 0.7394757000001846), (4, 1.1873769310004718), (5, 1.6834582820001742), (5, 1.9073282730005303)]",0.5000733950747739
group,1,103,post,3,64,anticlockwise,clockwise,wrong,0.8415807430001223,ac,850,-10,500,solo,0.9901705189995482,sg,3,1.5486425030003375,1,"[(1, 0.00047514200014120433), (2, 0.5094763789993522), (3, 0.7175657600000704), (3, 1.5495336739995764)]",0.582737290591623
group,1,104,post,-3,64,anticlockwise,anticlockwise,correct,0.998782540999855,ac,590,-10,500,solo,0.5972042160001365,sg,5,4.852538408000328,1,"[(1, 0.00047933000041666673), (2, 0.9014397299997654), (3, 1.8454442809998), (4, 2.0534751119994326), (5, 2.9333713989999524), (4, 3.701673436999954), (5, 4.437495183999999), (5, 4.853299633999995)]",0.4568418901660195
group,1,105,post,3,8,clockwise,clockwise,correct,0.9833797920000507,ac,1040,0,500,solo,0.9823430529995676,gs,6,1.4291109579999102,3,"[(3, 0.00048237400005746167), (4, 0.39013111100030073), (5, 0.5660365989997445), (6, 0.7741216909998911), (6, 1.4299623150000116)]",0.5404761551369194
group,1,106,post,-3,8,anticlockwise,anticlockwise,correct,1.123026060000484,ca,550,-10,500,solo,0.733059922999928,sg,5,0.9012927260000652,5,"[(5, 0.00048363200039602816), (6, 0.19829725399995368), (5, 0.5983695069999158), (5, 0.9022014559996023)]",0.5003783351531562
group,1,107,pre,3,8,clockwise,clockwise,correct,1.0121216150000691,ac,940,0,500,solo,0.9971308630001658,sg,5,1.7614776200007327,2,"[(2, 0.0004910180005026632), (3, 0.5143202579993158), (4, 0.7064260919996741), (5, 1.3303517019994615), (5, 1.762373118999676)]",0.4843890168709715
group,1,108,post,-3,16,anticlockwise,anticlockwise,correct,0.4689836679999644,ac,500,10,500,solo,0.7450425199995152,sg,4,1.3762472569997044,5,"[(5, 0.0004765860003317357), (4, 0.8014321660002679), (4, 1.3772160440003063)]",0.428694580011777
group,2,1,pre,-3,16,anticlockwise,anticlockwise,correct,0.8636850299990328,ac,850,10,500,solo,3.3281044060004206,sg,4,2.8510036620009487,1,"[(1, 0.0004300050004530931), (2, 1.7320244179991278), (3, 1.9879421349996846), (4, 2.211924690998785), (4, 2.8518258139993122)]",0.5500812366875878
group,2,2,post,-3,16,anticlockwise,anticlockwise,correct,0.7282214610004303,ca,1270,0,500,solo,2.7850178400003642,gs,2,2.104409361998478,1,"[(1, 0.0004924960012431256), (2, 1.4014529830001266), (2, 2.105345871999816)]",0.5079595954815869
group,2,3,post,3,16,clockwise,clockwise,correct,0.7785676160001458,ac,770,0,500,solo,1.393425602998832,gs,4,4.095750655998927,3,"[(3, 0.0005058210008428432), (4, 2.832725822001521), (4, 4.09673698700135)]",0.5342804909757121
group,2,4,post,3,8,clockwise,clockwise,correct,0.5595499419996486,ac,550,10,500,solo,1.6806085509997502,gs,2,1.6354722180003591,2,"[(2, 0.0004917269998259144), (2, 1.6361822979997669)]",0.5607444157462494
group,2,5,post,-3,64,anticlockwise,anticlockwise,correct,0.8915648780002812,ca,770,10,500,solo,1.1186950070004968,sg,5,1.7998259100004361,6,"[(6, 0.0004992060003132792), (5, 1.4649592010009655), (5, 1.8006485870009783)]",0.4308413180262684
group,2,6,post,3,32,clockwise,clockwise,correct,0.8399660199993377,ac,1400,-10,500,solo,0.7019023580014618,sg,5,2.727498268999625,5,"[(5, 0.0004876489983871579), (6, 1.3844548370016128), (5, 1.704330722001032), (4, 1.976507394001601), (5, 2.488593073001539), (5, 2.7284656910014746)]",0.4605888988754218
group,2,7,post,-3,32,anticlockwise,anticlockwise,correct,0.7530077020001045,ac,850,-10,500,solo,1.0020925879998686,gs,5,1.831298978999257,3,"[(3, 0.0004939110003761016), (4, 0.9526981049984897), (5, 1.3846569629986334), (5, 1.8325518209985603)]",0.49454078335331686
group,2,8,post,3,64,anticlockwise,clockwise,wrong,1.1285843899986503,ac,1150,0,500,solo,1.1228718499987735,sg,4,1.3234514850009873,1,"[(1, 0.0004774919998453697), (2, 0.5565425109998614), (3, 0.8284644520008442), (4, 1.0525283839997428), (4, 1.3243009939997137)]",0.41055464033252664
group,2,9,post,-3,8,anticlockwise,anticlockwise,correct,0.6391194179996091,ac,1150,-10,500,solo,0.8765984120000212,gs,6,0.9751524420007627,4,"[(4, 0.00048405299821752124), (5, 0.4322329879996687), (6, 0.8642264280006202), (6, 0.976101345000643)]",0.4468405844611247
group,2,10,post,3,16,clockwise,clockwise,correct,0.7689374479996332,ca,850,-10,500,solo,0.8897078650006733,sg,2,1.7563640879998275,5,"[(5, 0.00048662600056559313), (4, 1.069456409999475), (3, 1.3093227489989658), (2, 1.533322852999845), (2, 1.7572792219998519)]",0.4404000211647915
group,2,11,pre,-3,64,anticlockwise,anticlockwise,correct,0.7755895909995161,ac,700,-10,500,solo,2.0862300940007117,gs,2,1.6785779080000793,6,"[(6, 0.0004924429995298851), (5, 0.7515688309995312), (4, 1.0394829239994579), (3, 1.3115356050002447), (2, 1.5195516599997063), (2, 1.6795146819986257)]",0.5508541454679122
group,2,12,post,-3,64,clockwise,anticlockwise,wrong,0.8534003740005573,ac,700,10,500,group,1.6581616229996143,sg,1,2.782210965999184,1,"[(1, 0.0004924140012008138), (1, 0.335119740000664), (1, 2.78311290900092)]",0.4211776631298936
group,2,13,post,3,64,anticlockwise,clockwise,wrong,0.8218344010001601,ca,590,0,500,solo,3.116694397000174,gs,3,1.6374094080001669,5,"[(5, 0.0004919999992125668), (4, 0.4384603700000298), (3, 0.7103755999996793), (2, 0.9342043710003054), (3, 1.4303334769992944), (3, 1.638331422000192)]",0.4775568872081685
group,2,14,post,-3,8,anticlockwise,anticlockwise,correct,0.5396231249997072,ac,1400,10,500,solo,0.7492225249989133,sg,5,1.7968025549998856,4,"[(4, 0.000504841998917982), (5, 1.6218356890003633), (5, 1.797499260999757)]",0.4963890990887571
group,2,15,post,-3,32,anticlockwise,anticlockwise,correct,0.9156765869993251,ac,770,10,500,solo,0.6142358020006213,sg,5,0.9149525909997465,5,"[(5, 0.0005067170004622312), (5, 0.9159644109986402)]",0.5045385622032329
group,2,16,post,3,8,clockwise,clockwise,correct,0.5793946979993052,ca,640,0,500,solo,0.9941662050005107,gs,6,0.7520979159999115,6,"[(6, 0.0005183930006751325), (6, 0.7529099800012773)]",0.56893027288010245
group,2,17,post,-3,16,anticlockwise,anticlockwise,correct,0.8078882240006351,ca,590,-10,500,solo,0.7666528789995937,sg,5,0.7739460269986012,6,"[(6, 0.0005074370001239004), (5, 0.5030618729997514), (5, 0.7747842169992509)]",0.5268250416429838
group,2,18,post,3,32,clockwise,clockwise,correct,0.6725968829996418,ca,1150,10,500,solo,0.8925039219993778,gs,6,0.831657663000442,5,"[(5, 0.0004905629994027549), (6, 0.60876059399925), (6, 0.8325292869994882)]",0.4186816504063047
group,2,19,post,-3,64,clockwise,anticlockwise,wrong,0.818169633999787,ac,500,10,500,solo,1.0320855659992958,gs,2,2.5007596129999,5,"[(5, 0.00047767500109330285), (4, 0.7259059749994776), (3, 0.9817464609986928), (2, 2.229725247998431), (2, 2.5016206599993893)]",0.5588317082051202
group,2,20,post,-3,32,anticlockwise,anticlockwise,correct,0.8241716819993599,ca,1400,-10,500,solo,0.862718104999658,gs,3,1.2335053760016308,6,"[(6, 0.0005253620001894888), (5, 0.4025787689988647), (4, 0.6744798589988932), (3, 0.9463831659995776), (3, 1.2342742099990573)]",0.4775656682042707
group,2,21,post,3,16,clockwise,clockwise,correct,2.85575799399885,ca,1400,10,500,solo,0.7648689910001849,sg,4,1.5236998990003485,5,"[(5, 0.00047196699961205013), (4, 0.5646198769991315), (4, 1.5246488229986426)]",0.4704254857590692
group,2,22,post,3,8,clockwise,clockwise,correct,0.9611586760001956,ac,770,0,500,solo,0.609543743001268,sg,5,0.9110019820000161,3,"[(3, 0.0004823180006496841), (4, 0.480071855999995), (5, 0.735967876000359), (5, 0.9119815120011481)]",0.4155751250777451
group,2,23,post,3,32,clockwise,clockwise,correct,0.880944141999862,ca,700,-10,500,solo,0.7087204880008358,gs,4,1.9818840980005916,1,"[(1, 0.0004846920001000399), (2, 0.4627759150007478), (3, 0.9907872580006369), (4, 1.4069181270006084), (4, 1.9826188150000235)]",0.5065163605879124
group,2,24,pre,3,64,clockwise,clockwise,correct,0.8184785829998873,ca,590,0,500,solo,1.3119967759994324,sg,4,2.119665692998751,3,"[(3, 0.0004934589996992145), (4, 1.5128206480003428), (4, 2.120463365999967)]",0.5001176328141759
group,2,25,post,3,64,clockwise,clockwise,correct,0.814222109000184,ac,640,10,500,solo,0.9004254490009771,gs,5,1.414816966998842,1,"[(1, 0.00047891299982438795), (2, 0.39190879600027984), (3, 0.6476398089998838), (4, 0.9036701550012367), (5, 1.207776917000956), (5, 1.4156772530004673)]",0.4026625704499345
group,2,26,post,-3,16,anticlockwise,anticlockwise,correct,0.7251574709989654,ac,1040,-10,500,solo,0.7838951180001459,gs,5,1.510970366998663,1,"[(1, 0.00048398600119980983), (2, 0.5198604640008853), (3, 0.775971050001317), (4, 0.9518067700009851), (5, 1.2718700610002998), (5, 1.5118302320006478)]",0.4758686299561168
group,2,27,post,-3,8,anticlockwise,anticlockwise,correct,0.5625725580011931,ac,500,0,500,solo,1.6188245760004065,gs,5,1.400412310998945,3,"[(3, 0.00048468100067111664), (4, 0.857164016999377), (5, 1.1453889919994253), (5, 1.4010694339995098)]",0.4428414984376796
group,2,28,post,3,16,clockwise,clockwise,correct,0.6615530790004414,ac,940,-10,500,solo,1.1858594009991066,gs,6,0.7759924180008966,6,"[(6, 0.0004920609990222147), (6, 0.7770023459997901)]",0.5445666487653776
group,2,29,post,-3,8,clockwise,anticlockwise,wrong,1.4368415970002388,ca,770,10,500,group,1.6581911060002312,sg,3,1.2615531499995996,3,"[(3, 0.0004933250002068235), (3, 1.262459311999919)]",0.5825101478876701
group,2,30,post,-3,64,clockwise,anticlockwise,wrong,0.9146396570013167,ac,550,10,500,group,1.1085222260007868,gs,2,1.5018936300002679,4,"[(4, 0.0005328519982867874), (3, 0.830861164999078), (2, 1.2948408979991655), (2, 1.5028571619986906)]",0.4577091789645017
group,2,31,post,3,32,clockwise,clockwise,correct,0.7767435240002669,ca,1040,10,500,solo,0.8804299029998219,gs,3,1.2669250540002395,4,"[(4, 0.00048258599963446613), (3, 0.9158576210011233), (3, 1.2678266679995431)]",0.5095001851748187
group,2,32,post,3,8,clockwise,clockwise,correct,1.3692804239999532,ac,1400,-10,500,solo,0.8889659579999716,gs,5,1.0039471939999203,6,"[(6, 0.0004981259990017861), (5, 0.6046980350001832), (5, 1.0046092009997665)]",0.4407358358292994
group,2,33,post,3,64,anticlockwise,clockwise,wrong,1.5965534200004186,ca,700,-10,500,solo,1.0110858389998612,gs,4,1.9842524180003238,2,"[(2, 0.0004911180003546178), (3, 1.1851737929991941), (4, 1.713088381999114), (4, 1.9851528670005791)]",0.470467915732476
group,2,34,pre,3,32,anticlockwise,clockwise,wrong,0.6940439869995316,ca,770,10,500,solo,1.2015035290005471,sg,3,1.2487512200004858,2,"[(2, 0.0004884930003754562), (3, 0.7216682910002419), (3, 1.24960274499972)]",0.5499312112623426
group,2,35,post,-3,32,anticlockwise,anticlockwise,correct,1.1413060840004619,ac,1040,-10,500,solo,2.3991447179996612,sg,3,1.301306483001099,2,"[(2, 0.0004815159991267137), (3, 0.8702685810003459), (3, 1.302313119000246)]",0.502214195985466
group,2,36,post,-3,16,anticlockwise,anticlockwise,correct,0.7131292879985267,ca,700,0,500,solo,0.6436262150000402,sg,4,0.751649099000133,3,"[(3, 0.0004868180003541056), (4, 0.5125638299996353), (4, 0.7525409160007257)]",0.47106603227089006
group,2,37,post,3,8,clockwise,clockwise,correct,0.9873353289985971,ac,500,-10,500,group,2.6672582259998308,sg,3,2.0064577299999655,1,"[(1, 0.0004889909996563802), (2, 1.2238159330008784), (3, 1.6718118650005636), (3, 2.0077355739995255)]",0.417519844291491
group,2,38,post,3,64,clockwise,clockwise,correct,0.672794469001019,ca,1040,-10,500,solo,1.276031592000436,gs,4,1.21474059799948,3,"[(3, 0.0004765230005432386), (4, 0.9596622549997846), (4, 1.2154959670006065)]",0.43797771912637123
group,2,39,post,-3,8,anticlockwise,anticlockwise,correct,0.8553607069989084,ac,590,-10,500,solo,1.59627621600157,sg,2,1.8261295900010737,3,"[(3, 0.0006193339995661518), (2, 0.8509773879995919), (2, 1.827063676000762)]",0.4448267621024234
group,2,40,post,-3,64,anticlockwise,anticlockwise,correct,1.1687947699992947,ca,1040,0,500,solo,1.0648453630001313,gs,5,1.4768725689991697,4,"[(4, 0.0005022800014558015), (5, 0.7736825939991832), (5, 1.477723423999123)]",0.46750742456214245
group,2,41,post,-3,16,anticlockwise,anticlockwise,correct,1.2662804529991263,ca,500,-10,500,group,2.550611225000466,sg,5,1.8466845889997785,1,"[(1, 0.00048643399895809125), (2, 0.4556028930001048), (3, 0.7114876060004462), (4, 0.9835384720008733), (5, 1.207498289000796), (5, 1.8473466570012533)]",0.44343789194877914
group,2,42,post,-3,32,anticlockwise,anticlockwise,correct,1.199822481999945,ca,1150,-10,500,solo,0.8388578079993749,sg,6,0.8112395600001037,6,"[(6, 0.0006006639996485319), (6, 0.812043920999713)]",0.5902372769487128
group,2,43,post,3,16,clockwise,clockwise,correct,0.7230004009998083,ca,640,0,500,solo,0.7169828629994299,sg,4,0.9836335170002712,6,"[(6, 0.0005042399989179103), (5, 0.5208369890005997), (4, 0.7765483999992284), (4, 0.9845182080007362)]",0.4507944055565732
group,2,44,pre,-3,32,anticlockwise,anticlockwise,correct,1.2181944160001876,ca,940,-10,500,solo,1.876139890999184,gs,3,1.2881486419992143,6,"[(6, 0.0005164029989828123), (5, 0.569044739999299), (4, 0.8090328019989101), (3, 1.0490652819989918), (3, 1.2889491879996058)]",0.444122881704074
group,2,45,post,3,32,clockwise,clockwise,correct,0.541784731000007,ac,850,10,500,solo,0.7202636179990805,gs,5,1.5765837679991819,4,"[(4, 0.00048177800090343226), (5, 1.3856609550002759), (5, 1.577509179000117)]",0.42647300407962313
group,2,46,post,-3,8,anticlockwise,anticlockwise,correct,0.8658185629992659,ac,640,10,500,group,3.1258441360005236,gs,1,0.8628826779986412,4,"[(4, 0.0005060989988123765), (3, 0.27195621200007736), (2, 0.4797874120013148), (1, 0.671602170999904), (1, 0.8636094820012659)]",0.44044955597270674
group,2,47,post,3,8,clockwise,clockwise,correct,1.0911798180004553,ac,850,10,500,solo,0.6701355639997928,sg,5,1.6094170520009357,4,"[(4, 0.0004900389994872967), (5, 1.4022096860007878), (5, 1.6101872280014504)]",0.5070220534699206
group,2,48,post,-3,16,anticlockwise,anticlockwise,correct,1.571317148000162,ca,850,10,500,solo,0.8281207639993227,gs,4,1.2319894889988063,2,"[(2, 0.0005270279998512706), (3, 0.6248137149996182), (4, 0.9770016530001158), (4, 1.233029715000157)]",0.40790681875340873
group,2,49,post,-3,64,anticlockwise,anticlockwise,correct,0.807556891000786,ca,1400,0,500,solo,0.6543462080007885,sg,1,2.153539640999952,2,"[(2, 0.0005183640005270718), (3, 0.8745857559988508), (2, 1.5624983409998094), (1, 1.9625802299997304), (1, 2.154489544998796)]",0.45697764590604034
group,2,50,post,3,16,clockwise,clockwise,correct,0.6545751499998005,ca,1270,-10,500,solo,0.9393198569996457,gs,4,3.996124837000025,1,"[(1, 0.0005047710001235828), (2, 0.4609514219991979), (3, 0.7488354710003478), (4, 1.0371416639991367), (4, 3.9970698859997356)]",0.4072707127510215
group,2,51,pre,-3,32,anticlockwise,anticlockwise,correct,0.821792775999711,ca,1400,-10,500,solo,1.0677078700009588,gs,4,1.450863367999773,6,"[(6, 0.000493839999762713), (5, 0.6679049649992521), (4, 1.163741583999581), (4, 1.4518501259990444)]",0.5627787113352223
group,2,52,post,3,64,anticlockwise,clockwise,wrong,1.2530917760013836,ac,850,10,500,solo,2.0418223990000115,sg,5,2.1258727019994694,1,"[(1, 0.0004991419991711155), (2, 0.7028750419995049), (3, 0.9587910890004423), (4, 1.4225548169997637), (5, 1.8706942059998255), (5, 2.1266893579995667)]",0.5639832185134432
group,2,53,post,3,32,clockwise,clockwise,correct,0.7845989690013084,ac,1270,0,500,solo,0.6485082970011717,sg,4,1.0605455429995345,2,"[(2, 0.0005169510004634503), (3, 0.5173920279994491), (4, 0.8213787149998097), (4, 1.0612131500001851)]",0.4702433390538241
group,2,54,post,-3,32,clockwise,anticlockwise,wrong,0.8302895169999829,ac,1270,-10,500,solo,0.7076926320005441,sg,4,1.293697286000679,3,"[(3, 0.0005163500009075506), (4, 0.8945405550002761), (4, 1.2945737070003815)]",0.5613278012961966
group,2,55,post,-3,64,clockwise,anticlockwise,wrong,1.0531179220015474,ac,590,0,500,solo,2.4099653079993004,sg,2,2.0150462499987043,3,"[(3, 0.0004982520003977697), (2, 1.6644300240004668), (2, 2.016135091000251)]",0.5474359612073096
group,2,56,post,3,64,anticlockwise,clockwise,wrong,1.362898375999066,ac,1270,0,500,solo,2.8029484340004274,sg,1,1.7532968760006042,2,"[(2, 0.0004928999987896532), (3, 0.890333830999225), (2, 1.2263728569996601), (1, 1.4661259669992432), (1, 1.7541424690007261)]",0.5712067193615915
group,2,57,post,3,32,clockwise,clockwise,correct,0.9058974879990274,ca,500,-10,500,group,2.2360475309997128,sg,4,1.7375415450005676,2,"[(2, 0.00047583900050085504), (3, 1.2744469799999933), (4, 1.5786728460006998), (4, 1.7384071220003534)]",0.5173862904518151
group,2,58,post,-3,16,anticlockwise,anticlockwise,correct,0.6973872180005856,ac,770,10,500,solo,0.7074849820000964,sg,5,1.6459026189986616,1,"[(1, 0.000496908000059193), (2, 0.43100979600058054), (3, 0.6708881330014265), (4, 0.8948236490014096), (5, 1.4229443140011426), (5, 1.6469217030007712)]",0.5443286545160406
group,2,59,post,-3,8,anticlockwise,anticlockwise,correct,0.6569531670011202,ac,700,10,500,solo,0.7976558930004103,gs,4,0.8675028500001645,5,"[(5, 0.0004967919994669501), (4, 0.6926478280001902), (4, 0.8682781759998761)]",0.545591347612265
group,2,60,post,-3,32,anticlockwise,anticlockwise,correct,0.9644120329994621,ca,700,0,500,solo,0.5802178960002493,sg,4,1.1549475520005217,6,"[(6, 0.0004947249999531778), (5, 0.6438328959993669), (4, 0.9477097460003279), (4, 1.1557886310001777)]",0.5733004469064839
group,2,61,post,3,8,clockwise,clockwise,correct,1.033669688998998,ca,1270,10,500,solo,0.6147431930003222,sg,5,1.8280456539996521,5,"[(5, 0.0004841070003749337), (5, 1.8291263800001616)]",0.5706706317151615
group,2,62,pre,-3,64,anticlockwise,anticlockwise,correct,0.8751371589987684,ca,1270,0,500,solo,1.657724202999816,gs,2,1.9338472179988457,2,"[(2, 0.0004967069999111118), (2, 1.9346137390002696)]",0.5863969132321049
group,2,63,post,3,16,clockwise,clockwise,correct,0.8102596890003042,ca,700,-10,500,solo,0.9118905520008411,gs,3,1.3934877170013351,4,"[(4, 0.0005005900002288399), (3, 1.202634694000153), (3, 1.3943523879988788)]",0.4408818535396203
group,2,64,pre,3,64,clockwise,clockwise,correct,0.714180736000344,ac,1040,0,500,solo,1.1181150769989472,gs,4,1.651940982999804,3,"[(3, 0.0005294189995765919), (4, 1.0769403319991397), (4, 1.6527931860000535)]",0.453065594911647
group,2,65,post,3,16,clockwise,clockwise,correct,0.6490098410013161,ac,1040,0,500,solo,0.9655321840000397,gs,4,1.7331398369988165,1,"[(1, 0.0005299160002323333), (2, 1.0459580329988967), (3, 1.2541202060001524), (4, 1.4620726789999026), (4, 1.7341050199993333)]",0.4887198485541045
group,2,66,post,3,64,anticlockwise,clockwise,wrong,0.8375495710006362,ca,500,-10,500,solo,3.33863410900085,gs,4,1.6920693679985561,3,"[(3, 0.0005137540010764496), (4, 1.4688386130001163), (4, 1.6928265490005288)]",0.5151524194681294
group,2,67,post,-3,32,anticlockwise,anticlockwise,correct,0.674624285000391,ac,590,-10,500,solo,0.7982859179992374,gs,4,1.684034513998995,6,"[(6, 0.0005299139993439894), (5, 0.7568458049991023), (4, 1.0290378509998845), (4, 1.6848405900000216)]",0.41336646732837967
group,2,68,post,-3,8,anticlockwise,anticlockwise,correct,0.776142119000724,ca,940,10,500,solo,0.46437944600074843,sg,5,0.8508144389998051,5,"[(5, 0.0004958280005666893), (5, 0.85174349800036)]",0.4736026564057907
group,2,69,post,-3,64,anticlockwise,anticlockwise,correct,1.028542299000037,ac,850,10,500,solo,0.674542515000212,gs,5,1.4061811179999495,1,"[(1, 0.0004954289997840533), (2, 0.527210598000238), (3, 0.7672286750002968), (4, 0.9751711610006168), (5, 1.2151926650003588), (5, 1.4070484280000528)]",0.5841060638558309
group,2,70,post,-3,16,anticlockwise,anticlockwise,correct,0.569292772001063,ac,940,0,500,solo,0.569463818001168,sg,5,1.4017613529995288,6,"[(6, 0.0005049600003985688), (5, 0.5388542609998694), (5, 1.402582443999563)]",0.572305350875105
group,2,71,post,3,32,clockwise,clockwise,correct,0.5706410660004622,ac,770,-10,500,solo,0.5069549829986499,sg,2,1.7883735100003832,3,"[(3, 0.0004919260009046411), (2, 1.6134331689991086), (2, 1.789180559999295)]",0.4284127068275983
group,2,72,post,3,8,clockwise,clockwise,correct,0.5897456430011516,ac,700,0,500,solo,1.3564047529998788,gs,4,1.453432721000354,2,"[(2, 0.0004918319991702447), (3, 0.5901499440005864), (4, 1.1662929650010483), (4, 1.454340743001012)]",0.48405680803691264
group,2,73,post,3,32,clockwise,clockwise,correct,0.5541556580010365,ac,590,10,500,solo,0.6029501039993193,sg,4,1.1125863159995788,1,"[(1, 0.0004890499985776842), (2, 0.5056458689996361), (3, 0.7294417349985451), (4, 0.9374756419983896), (4, 1.114853557999595)]",0.47298940282791585
group,2,74,post,-3,64,clockwise,anticlockwise,wrong,0.7729656039991823,ca,1150,-10,500,solo,0.6047258930011594,sg,1,0.7629306799990445,1,"[(1, 0.0005748990006395616), (1, 0.7636099249994004)]",0.46337974882446736
group,2,75,post,-3,16,anticlockwise,anticlockwise,correct,1.3668739829990955,ac,640,0,500,solo,0.7264564680008334,gs,3,0.6708951869986777,3,"[(3, 0.0005137350017321296), (3, 0.6716485080014536)]",0.4085076145295502
group,2,76,post,3,64,clockwise,clockwise,correct,0.7461346159998357,ac,770,-10,500,solo,0.9312968210015242,gs,2,0.8684756820002804,4,"[(4, 0.0005153999991307501), (3, 0.4054454479992273), (2, 0.6294218729999557), (2, 0.8692018699985056)]",0.51752072279437
group,2,77,post,3,16,clockwise,clockwise,correct,0.6334198839995224,ca,550,10,500,solo,0.6796864660009305,sg,5,1.7144025019988476,1,"[(1, 0.0004894659996352857), (2, 0.5957183800001076), (3, 0.8355813050002325), (4, 1.0436150189998443), (5, 1.5714255629991385), (5, 1.7155094819991064)]",0.4568051293683182
group,2,78,pre,-3,16,anticlockwise,anticlockwise,correct,0.38200480100022105,ac,500,-10,500,solo,1.954020639999726,gs,3,1.4770555100003548,5,"[(5, 0.0005185549998714123), (4, 0.9661665570001787), (3, 1.254105101001187), (3, 1.477834053001061)]",0.43564971162646693
group,2,79,post,-3,32,anticlockwise,anticlockwise,correct,0.8639589240010537,ac,940,-10,500,solo,0.8683456119997572,gs,1,1.2402123440006108,2,"[(2, 0.0005365230008465005), (1, 1.1928750429997308), (1, 1.2409938239998155)]",0.49297274063616164
group,2,80,post,-3,8,anticlockwise,anticlockwise,correct,0.7292887220010016,ca,550,10,500,solo,0.6755190469993977,sg,4,1.6146313400004146,3,"[(3, 0.0005122849997860612), (4, 0.4956144280004082), (5, 0.7675028199992084), (4, 1.3595618809995358), (4, 1.6154952229990158)]",0.5785996176830377
group,2,81,post,3,8,clockwise,clockwise,correct,0.7862136080002529,ac,1040,10,500,solo,0.6501643090014113,sg,5,0.725932063000073,5,"[(5, 0.0004988389991922304), (5, 0.7267147399998066)]",0.5669411721421296
group,2,82,post,3,16,clockwise,clockwise,correct,1.9361792820000119,ca,1150,0,500,solo,0.7939124469994567,gs,5,1.0236072980005702,6,"[(6, 0.0005085720003989991), (5, 0.40070311599993147), (5, 1.0246281849995285)]",0.4817976040186626
group,2,83,post,3,64,anticlockwise,clockwise,wrong,0.729378297999574,ac,1400,10,500,solo,0.6263611770009447,sg,2,0.9759424019994185,4,"[(4, 0.0004904090001218719), (3, 0.2569846639999014), (2, 0.46476185800020176), (2, 0.9768700579988945)]",0.5912162296147957
group,2,84,post,-3,32,anticlockwise,anticlockwise,correct,0.8508574469997257,ca,500,10,500,solo,1.0473486640003102,sg,1,1.4279233110009955,1,"[(1, 0.0004903170010948088), (2, 0.8525974000003771), (1, 1.2528356599996187), (1, 1.4286795959997107)]",0.40532171336321593
group,2,85,post,-3,64,anticlockwise,anticlockwise,correct,0.6583113489996322,ca,1270,-10,500,solo,0.5596227570003975,sg,4,1.2948125710008753,4,"[(4, 0.00048264099859807175), (5, 0.7677657019994513), (4, 1.1198281369997858), (4, 1.295672800999455)]",0.47046361676468246
group,2,86,post,3,8,clockwise,clockwise,correct,0.5786998610001319,ac,1150,-10,500,solo,0.721986726999603,gs,5,1.402597489000982,3,"[(3, 0.000512597000124515), (4, 0.6036150050003926), (5, 1.2435750139993615), (5, 1.403471442999944)]",0.48609637801996247
group,2,87,post,-3,16,clockwise,anticlockwise,wrong,0.6852968969997164,ac,550,-10,500,solo,0.7454475759986963,gs,3,1.7766368739994505,3,"[(3, 0.0005099720001453534), (2, 1.1853353059996152), (3, 1.521434305001094), (3, 1.7774129190001986)]",0.41789266471860914
group,2,88,post,-3,8,anticlockwise,anticlockwise,correct,0.7970177480001439,ac,850,-10,500,solo,0.7244178340006329,gs,4,1.1172700189999887,2,"[(2, 0.0006770590007363353), (3, 0.638364743999773), (4, 0.9102219139986119), (4, 1.118116146999455)]",0.5789488116842945
group,2,89,pre,-3,8,anticlockwise,anticlockwise,correct,0.8827867359996162,ca,640,0,500,solo,1.6981684290003614,sg,3,1.5415131459994882,6,"[(6, 0.0005105159998493036), (5, 0.678484322001168), (4, 0.9344315700000152), (3, 1.334390190000704), (3, 1.542433846001586)]",0.5335371801916621
group,2,90,post,3,32,anticlockwise,clockwise,wrong,3.533979948000706,ac,640,10,500,solo,0.7919483509995189,gs,1,1.213430445000995,2,"[(2, 0.00051164499927836), (1, 0.8623815030005062), (1, 1.2142214100003912)]",0.5262501315326608
group,2,91,post,3,64,anticlockwise,clockwise,wrong,1.1915515639993828,ac,940,0,500,solo,0.672158841000055,sg,2,1.402475371998662,6,"[(6, 0.000510197000039625), (5, 0.39582404799875803), (4, 0.5878013869987626), (3, 0.7638972719996673), (2, 0.9398590159999003), (2, 1.4037034409993794)]",0.4018443226303924
group,2,92,post,3,16,clockwise,clockwise,correct,1.0801826909992087,ca,590,0,500,solo,0.5636127140005556,sg,2,0.7386807780003437,3,"[(3, 0.000497691000418854), (2, 0.5636208369996893), (2, 0.739550751999559)]",0.5476554738166062
group,2,93,post,-3,16,anticlockwise,anticlockwise,correct,0.6838737649995892,ca,1150,0,500,solo,0.7118195710008877,gs,3,0.929711087999749,5,"[(5, 0.0005147580013726838), (4, 0.3864877930009243), (3, 0.5945417020011519), (3, 0.9304719230003684)]",0.5027619199080824
group,2,94,post,-3,64,anticlockwise,anticlockwise,correct,0.7203672969990293,ac,640,0,500,solo,0.6020413230016857,sg,5,0.919812684000135,3,"[(3, 0.0004978679990017554), (4, 0.5527151450005476), (5, 0.7926491889993486), (5, 0.9206046790004621)]",0.5719870315468542
group,2,95,post,-3,8,anticlockwise,anticlockwise,correct,1.005841762998898,ac,1040,-10,500,solo,0.8288131859990244,sg,2,1.3128983220012742,3,"[(3, 0.00048564999997324776), (2, 0.9779825659989001), (2, 1.3137246959995537)]",0.4118417169910065
group,2,96,post,3,32,clockwise,clockwise,correct,0.6564867180004512,ca,940,0,500,solo,0.604707316000713,sg,5,1.4513715190005314,1,"[(1, 0.0005165139991731849), (2, 0.4923118520000571), (3, 0.7481973840003775), (4, 1.0201062479991378), (5, 1.2602858179998293), (5, 1.4522736979997717)]",0.5851120266995503
group,2,97,post,3,8,clockwise,clockwise,correct,1.2592300360010995,ca,590,0,500,solo,0.7035770839993347,gs,4,0.9857526129999314,5,"[(5, 0.0005044660010753432), (4, 0.778685012999631), (4, 0.9865825979995861)]",0.4062429104698596
group,2,98,post,-3,32,anticlockwise,anticlockwise,correct,1.0042802019997907,ca,550,10,500,solo,0.9395331720006652,gs,4,1.5316854350003268,1,"[(1, 0.0004967749991919845), (2, 0.7326038060000428), (3, 0.988404060000903), (4, 1.3246027490004053), (4, 1.5326024660007533)]",0.4196340903496583
group,2,99,pre,3,64,clockwise,clockwise,correct,0.5920737759988697,ac,550,10,500,solo,1.2460309430007328,gs,5,1.3586580869996396,1,"[(1, 0.0005042340017098468), (2, 0.5755596100007097), (3, 0.7994678239992936), (4, 1.0235913439992146), (5, 1.2475083970002743), (5, 1.3594108540000889)]",0.5632745589556758
group,2,100,post,3,64,anticlockwise,clockwise,wrong,0.8795150099995226,ca,550,0,500,solo,0.9150079719984205,gs,3,1.7157159489997866,4,"[(4, 0.0004977379994670628), (3, 1.284811647999959), (3, 1.7166497690013784)]",0.4771206560895275
group,2,101,pre,3,32,clockwise,clockwise,correct,0.9787851379987842,ca,1150,-10,500,solo,1.1666505350003717,gs,1,1.4261818899994978,2,"[(2, 0.0004967309996573022), (1, 1.1710713609991217), (1, 1.4269193740001356)]",0.5794123997131929
group,2,102,post,3,16,clockwise,clockwise,correct,1.5965278439998656,ca,500,0,500,solo,1.714748034000877,sg,4,1.2367463299997326,3,"[(3, 0.0005024229994887719), (4, 1.029535373001636), (4, 1.2376976350005862)]",0.5760829173779957
group,2,103,post,-3,8,anticlockwise,anticlockwise,correct,0.7586588520007354,ca,1270,-10,500,solo,0.7036280140000599,gs,5,1.5464248870011943,2,"[(2, 0.0004924620006931946), (3, 0.9234535719988344), (4, 1.1635067279985378), (5, 1.371135797999159), (5, 1.547160272999463)]",0.5790393756823613
group,2,104,post,-3,64,anticlockwise,anticlockwise,correct,0.7356918430014048,ac,940,0,500,solo,0.6003046179994271,sg,4,0.7909556280010293,5,"[(5, 0.0005041099993832177), (4, 0.567904538998846), (4, 0.7918935289999354)]",0.5792132897476945
group,2,105,post,-3,32,anticlockwise,anticlockwise,correct,1.5468193180004164,ac,640,0,500,solo,0.8029387599999609,gs,5,1.3373016219993588,4,"[(4, 0.0005146269995748298), (3, 0.36251383799935866), (4, 0.922258509999665), (5, 1.1782335299994884), (5, 1.3381948599999305)]",0.5810226937686872
group,2,106,post,3,8,clockwise,clockwise,correct,0.8277601629997662,ca,940,-10,500,solo,0.9292054039997311,gs,5,1.1858205910011748,3,"[(3, 0.0005187970000406494), (4, 0.722515987999941), (5, 0.994597213999441), (5, 1.18659754699911)]",0.45933300956341394
group,2,107,post,3,32,anticlockwise,clockwise,wrong,1.2766945290004514,ac,550,10,500,solo,0.6718089270016208,sg,3,2.1550704200017208,2,"[(2, 0.0005163449986866908), (1, 0.748091621999265), (2, 1.4680644389991357), (3, 1.8361303829988174), (3, 2.156010343998787)]",0.43797558787722324
group,2,108,post,-3,16,anticlockwise,anticlockwise,correct,1.7595647469988762,ac,1400,-10,500,solo,0.6392888340014906,sg,5,1.02087201500035,2,"[(2, 0.000493531000756775), (3, 0.39783724500011886), (4, 0.6375590970001213), (5, 0.8618654439997044), (5, 1.0215811030011537)]",0.4114938628495628
group,3,1,post,3,64,clockwise,clockwise,correct,1.4574921540006471,ca,770,0,500,solo,0.8947196379995148,sg,4,2.3848758919993998,4,"[(4, 0.00046718200064788107), (4, 2.385848582000108)]",0.5787907612814737
group,3,2,post,-3,16,clockwise,anticlockwise,wrong,0.6811392789986712,ac,1400,0,500,solo,1.3162224780007818,gs,3,1.5896725479997258,1,"[(1, 0.0005010099994251505), (2, 1.0625963370002864), (3, 1.286628108999139), (3, 1.5905221909997636)]",0.4810424172293774
group,3,3,post,3,16,clockwise,clockwise,correct,0.7137058969983627,ca,700,0,500,solo,0.9482461990010052,gs,4,2.579928491000828,2,"[(2, 0.0005104920001031132), (3, 0.9491014470004302), (4, 2.2768205130014394), (4, 2.580772503000844)]",0.5986979795376666
group,3,4,post,3,8,clockwise,clockwise,correct,0.7368993639993278,ca,700,0,500,solo,0.7946615010005189,gs,4,1.407652579000569,3,"[(3, 0.0004925929988530697), (4, 0.8649688959994819), (4, 1.4088974890000827)]",0.563163055281584
group,3,5,pre,-3,16,anticlockwise,anticlockwise,correct,1.0102954029989633,ca,590,0,500,solo,4.827175919999718,gs,4,2.416023674999451,5,"[(5, 0.00047880999954941217), (4, 2.049105423000583), (4, 2.4169955710003705)]",0.47142742808046445
group,3,6,post,3,32,anticlockwise,clockwise,wrong,2.3412985489994753,ac,1040,-10,500,solo,1.2625654910007142,sg,4,2.434068702001241,5,"[(5, 0.000500492998980917), (4, 2.1147719390010025), (4, 2.4350018259992794)]",0.5249793508311387
group,3,7,post,-3,64,anticlockwise,anticlockwise,correct,1.0020357700013847,ca,550,10,500,solo,0.9851439049998589,sg,4,2.008232202000727,3,"[(3, 0.0005024649999540998), (4, 1.2732331520001026), (4, 2.0091170739997324)]",0.43202729412023844
group,3,8,post,-3,8,anticlockwise,anticlockwise,correct,0.7181862130000809,ac,1150,0,500,solo,1.1602644679987861,gs,3,1.1993855759992584,2,"[(2, 0.0004987800002709264), (3, 0.8963659660003032), (3, 1.2002286759998242)]",0.5129998138866159
group,3,9,post,-3,32,anticlockwise,anticlockwise,correct,1.0332379629999195,ac,500,0,500,solo,1.9911442339998757,sg,4,2.061539927999547,4,"[(4, 0.00048763299855636433), (4, 2.0627137780011253)]",0.4098366116439347
group,3,10,post,3,16,clockwise,clockwise,correct,0.7544114140000602,ca,550,10,500,solo,1.0348705600008543,gs,3,1.400417902999834,3,"[(3, 0.0004918189988529775), (3, 1.4013982659998874)]",0.4866758417328866
group,3,11,post,3,8,clockwise,clockwise,correct,0.67560349499945,ca,940,-10,500,solo,1.1188984030013671,sg,3,1.431679069999518,2,"[(2, 0.0004931370003760094), (3, 0.6166908880004485), (3, 1.4325246550015436)]",0.5987711537578957
group,3,12,post,-3,64,anticlockwise,anticlockwise,correct,1.4646849600012501,ac,770,0,500,solo,1.604556281999976,sg,3,1.2425510180000856,5,"[(5, 0.0004852439997193869), (4, 0.6034736380006507), (3, 0.891362348000257), (3, 1.2434300879995135)]",0.42449731518080935
group,3,13,post,3,64,clockwise,clockwise,correct,0.8437496869992174,ac,700,10,500,solo,0.8808200860003126,gs,4,1.443405422000069,4,"[(4, 0.0005364319986256305), (4, 1.4444707699985884)]",0.581324898053367
group,3,14,post,-3,32,anticlockwise,anticlockwise,correct,1.1047890150002786,ca,640,0,500,solo,0.7957720510003128,gs,4,1.6184680559999833,4,"[(4, 0.0005187489987292793), (4, 1.6191886519991385)]",0.47689067018252485
group,3,15,post,-3,16,anticlockwise,anticlockwise,correct,0.9988081510000484,ac,500,10,500,solo,1.6056462050000846,gs,2,1.0678892310006631,2,"[(2, 0.0005066029989393428), (2, 1.0686669780006923)]",0.5375083673255477
group,3,16,post,3,32,clockwise,clockwise,correct,0.571486778999315,ac,770,-10,500,solo,0.8592359880003642,gs,4,2.1588445069992304,3,"[(3, 0.0005127339991304325), (4, 1.935626669001067), (4, 2.159613096000612)]",0.4196549901058596
group,3,17,pre,-3,64,anticlockwise,anticlockwise,correct,0.9474024129995087,ca,640,0,500,solo,4.55905563199849,sg,4,1.1722810000010213,5,"[(5, 0.0004915070003335131), (4, 0.8851963430006435), (4, 1.1732113389989536)]",0.40394774058438615
group,3,18,post,-3,8,anticlockwise,anticlockwise,correct,0.6839065049989586,ac,1400,10,500,solo,0.9183574920007231,sg,4,1.4798263129996485,5,"[(5, 0.0005023249996156665), (4, 1.1286802630002057), (4, 1.4806394269999146)]",0.52136429541074
group,3,19,post,3,8,clockwise,clockwise,correct,0.8012221720000525,ca,850,0,500,solo,1.0801747259993135,sg,4,1.6667595260005328,1,"[(1, 0.000498851000884315), (2, 0.6755853320009919), (3, 1.0436431060006726), (4, 1.2996125410008972), (4, 1.667532220000794)]",0.5663998967193614
group,3,20,post,-3,64,clockwise,anticlockwise,wrong,0.808585029999449,ac,940,10,500,solo,0.7831178010001167,sg,4,1.061461164999855,3,"[(3, 0.000503581999510061), (4, 0.7904828449991328), (4, 1.0623667090003437)]",0.46159661969169036
group,3,21,post,-3,16,anticlockwise,anticlockwise,correct,0.9333406799996737,ca,1040,-10,500,solo,0.7589641340000526,sg,4,0.7820523720001802,3,"[(3, 0.0005095999986224342), (4, 0.6068709150003997), (4, 0.782907831000557)]",0.41653560773335574
group,3,22,post,3,32,clockwise,clockwise,correct,0.5661816840001848,ac,500,0,500,solo,1.3821274090005318,gs,4,1.1563065640002606,5,"[(5, 0.0005213229997025337), (4, 0.7254662659997848), (4, 1.1572400160002871)]",0.49399352972941596
group,3,23,post,-3,8,anticlockwise,anticlockwise,correct,1.0883756189996348,ca,940,0,500,solo,0.7471213629996782,sg,4,1.026978247000443,3,"[(3, 0.00050470300084271), (4, 0.7396949539997877), (4, 1.0278723769988574)]",0.4400456925539592
group,3,24,post,-3,32,anticlockwise,anticlockwise,correct,1.4689067529998283,ac,940,-10,500,solo,1.3534506500000134,gs,4,1.1770755510005984,5,"[(5, 0.0004997649994038511), (4, 0.8261276590001216), (4, 1.1778690400005871)]",0.5905889484491739
group,3,25,post,3,16,clockwise,clockwise,correct,1.5371477950011467,ca,1150,-10,500,solo,0.9388693300006707,gs,4,1.6751078399993276,2,"[(2, 0.0004904740017082077), (3, 0.8442425739995087), (4, 1.0520083329993213), (4, 1.6760029340002802)]",0.4771991703360395
group,3,26,post,3,64,clockwise,clockwise,correct,0.8907883259998925,ca,1400,0,500,solo,0.6065691950007022,gs,4,1.1323261819998152,2,"[(2, 0.0005260610014374834), (3, 0.5412525040010223), (4, 0.7492544670003554), (4, 1.1332777220013668)]",0.5934605532219654
group,3,27,pre,-3,32,clockwise,anticlockwise,wrong,0.7441125189998274,ca,1270,10,500,solo,1.4710422940006538,sg,4,1.6327565930005221,3,"[(3, 0.0004980970006727148), (4, 1.3618189720000373), (4, 1.6335521840010188)]",0.5635926043499793
group,3,28,post,-3,64,anticlockwise,anticlockwise,correct,0.9944841179985815,ca,1150,10,500,solo,0.6092049199996836,sg,3,2.029905568999311,5,"[(5, 0.0005111970003781607), (4, 0.7027776260001701), (3, 0.9587000999999873), (4, 1.3908808570013207), (3, 1.8070063750001282), (3, 2.0308305739999923)]",0.5894971421225861
group,3,29,post,3,16,clockwise,clockwise,correct,1.1419331449997117,ac,500,0,500,solo,1.294648409999354,gs,3,2.5614889139997103,2,"[(2, 0.0004903369990643114), (3, 1.0265684030000557), (4, 1.2824321749994851), (3, 2.226472013999228), (3, 2.5622739259997616)]",0.4410187052305383
group,3,30,post,3,8,clockwise,clockwise,correct,0.7400469450003584,ac,500,-10,500,solo,0.8774200150000979,gs,4,5.488520318998781,5,"[(5, 0.0005060650000814348), (4, 4.913649579000776), (4, 5.489437823000117)]",0.43578565150516907
group,3,31,post,-3,8,anticlockwise,anticlockwise,correct,0.9213502689999586,ca,640,10,500,solo,1.2749321459996281,sg,3,1.9826146220002556,5,"[(5, 0.0006388459987647366), (4, 0.7516629460005788), (3, 1.5675103300000046), (3, 1.9835044920000655)]",0.55712252991292
group,3,32,post,-3,16,anticlockwise,anticlockwise,correct,1.0788825250001537,ca,550,0,500,solo,1.1868644309997762,sg,3,1.6255329089999577,2,"[(2, 0.0005624330005957745), (3, 0.8108164379991649), (3, 1.6268176749999839)]",0.46520330353662137
group,3,33,post,3,64,clockwise,clockwise,correct,1.1381247799999983,ac,640,10,500,solo,4.011792430999776,sg,4,1.4254412480004248,1,"[(1, 0.000512427999638021), (2, 0.7863066850004543), (3, 0.994218292998994), (4, 1.186304442000619), (4, 1.4263197159998526)]",0.40812620401736943
group,3,34,post,3,32,clockwise,clockwise,correct,0.6871760600006382,ca,700,-10,500,solo,0.8426261149998027,sg,4,1.3901832419996936,3,"[(3, 0.00047870599883026443), (4, 0.6877476129993738), (4, 1.3913656409986288)]",0.4931054377726657
group,3,35,pre,-3,16,anticlockwise,anticlockwise,correct,0.865700170999844,ac,770,-10,500,solo,1.9942982419997861,sg,4,2.196918546998859,1,"[(1, 0.0005134999992151279), (2, 0.6938165049996314), (3, 0.9179999860007229), (4, 1.1098190829998202), (4, 2.197891730000265)]",0.4849273181723996
group,3,36,post,-3,32,anticlockwise,anticlockwise,correct,1.074222668999937,ca,1400,10,500,solo,2.3666804479998973,gs,4,0.9023006370007352,3,"[(3, 0.000581346999751986), (4, 0.5991423089999444), (4, 0.9031329179997556)]",0.5283491270482963
group,3,37,post,-3,16,anticlockwise,anticlockwise,correct,0.6363705799994932,ac,1270,-10,500,solo,0.7933914159984852,sg,4,0.7989656820009259,3,"[(3, 0.0005026620001444826), (4, 0.5439474949998839), (4, 0.799874644000738)]",0.42719209719492707
group,3,38,post,3,64,clockwise,clockwise,correct,2.1139191450001817,ac,590,-10,500,solo,1.2208211039996968,gs,4,1.1781408349997946,3,"[(3, 0.0005183470002521062), (4, 0.6031184069997835), (4, 1.1792291250003473)]",0.5917634137641188
group,3,39,pre,3,8,clockwise,clockwise,correct,0.6379766339996422,ca,550,-10,500,solo,1.2912381030000688,gs,3,1.0343045929985237,1,"[(1, 0.0005151019995537354), (2, 0.5553685830000177), (3, 0.7470803119995253), (3, 1.0351342180001666)]",0.5358820056513458
group,3,40,post,3,8,clockwise,clockwise,correct,0.7456293349987391,ca,1150,0,500,solo,1.3778249400002096,gs,4,1.7286935020001692,6,"[(6, 0.00048289000005752314), (5, 0.9937998339992191), (4, 1.441773855000065), (4, 1.7296095109995804)]",0.46766759989640283
group,3,41,post,3,32,anticlockwise,clockwise,wrong,1.0409430599993357,ca,1270,-10,500,solo,0.7499583549997624,sg,4,1.173864409000089,2,"[(2, 0.000508766999701038), (3, 0.6149736040006246), (4, 0.8867024139999558), (4, 1.1747314820004249)]",0.5466705184122134
group,3,42,post,-3,64,anticlockwise,anticlockwise,correct,1.4864191920005396,ca,590,0,500,solo,0.9690748800003348,sg,3,1.6727069999997184,3,"[(3, 0.0005004489994462347), (3, 1.6734679379987938)]",0.4836868835327006
group,3,43,post,3,16,clockwise,clockwise,correct,0.5379659320005885,ac,1400,0,500,solo,0.8587978329996986,gs,4,1.1190312740000081,5,"[(5, 0.0005075099998066435), (4, 0.7359952990009333), (4, 1.1199887870006933)]",0.5752525351503501
group,3,44,post,-3,8,anticlockwise,anticlockwise,correct,1.146032317999925,ca,1270,-10,500,solo,0.7398114369989344,gs,4,1.5796715989999939,1,"[(1, 0.0004995819999749074), (2, 0.5566748889996234), (3, 0.7805264409998927), (4, 1.3405335679999553), (4, 1.5806126869993022)]",0.4777110758464473
group,3,45,post,-3,32,anticlockwise,anticlockwise,correct,0.7749806960000569,ac,1150,-10,500,solo,0.783058347999031,sg,3,1.3174051030000555,1,"[(1, 0.0005063770004198886), (2, 0.5664691089987173), (3, 0.7583375359990896), (3, 1.3182167619997927)]",0.41200836615757697
group,3,46,post,-3,8,anticlockwise,anticlockwise,correct,0.9373417700007849,ca,770,0,500,solo,0.778292909000811,sg,3,0.8651611780005624,4,"[(4, 0.0005090729991934495), (3, 0.6742478209998808), (3, 0.865999482000916)]",0.4582884783994976
group,3,47,post,3,8,clockwise,clockwise,correct,0.5625275540005532,ac,640,0,500,solo,0.8989220450002904,sg,4,0.980142477001209,2,"[(2, 0.000492295999720227), (3, 0.5491932559998531), (4, 0.7410700979999092), (4, 0.9811056220005412)]",0.5787729627224031
group,3,48,post,-3,16,anticlockwise,anticlockwise,correct,1.2060428479999246,ca,700,0,500,solo,0.8298561740011792,gs,3,1.8738487810005608,1,"[(1, 0.0004907950005872408), (2, 0.6428280870004528), (3, 0.7068716120011231), (4, 0.8826843080005347), (3, 1.6670433090002916), (3, 1.874645910000254)]",0.4279440060831593
group,3,49,post,3,32,clockwise,clockwise,correct,0.656349629000033,ac,640,-10,500,solo,0.7659274900015589,gs,3,1.653114753000409,5,"[(5, 0.0005055069996160455), (4, 0.6622664570004417), (3, 0.9180530369994813), (3, 1.6538412299996708)]",0.42376497843816224
group,3,50,post,-3,64,clockwise,anticlockwise,wrong,1.5124683789999835,ca,500,0,500,solo,1.8264433650001592,gs,4,2.223007389000486,3,"[(3, 0.0005089799997222144), (4, 1.0719989450008143), (4, 2.223930616000871)]",0.5307868000985718
group,3,51,post,3,64,clockwise,clockwise,correct,1.1999008680013503,ca,500,10,500,solo,2.933872113999314,gs,4,1.1757794379991537,5,"[(5, 0.000547295001524617), (4, 0.7447705279992078), (4, 1.1765235500006384)]",0.4349127415551255
group,3,52,pre,3,32,clockwise,clockwise,correct,0.7833889630001067,ca,500,0,500,solo,2.10663291200035,gs,3,1.4135918190004304,1,"[(1, 0.000501180998980999), (2, 0.8707199309992575), (3, 1.0784618859997863), (3, 1.4145384469993587)]",0.4770372296544638
group,3,53,post,3,16,clockwise,clockwise,correct,0.8176461619987094,ac,590,0,500,solo,1.143328157999349,gs,4,0.894842070998493,5,"[(5, 0.0004852069996559294), (4, 0.591820416999326), (4, 0.8957748409993656)]",0.5739154698683425
group,3,54,post,-3,32,anticlockwise,anticlockwise,correct,3.4721175999984553,ca,590,-10,500,solo,1.2278064639995137,sg,3,1.2172430289992917,4,"[(4, 0.0005069039998488734), (3, 1.0261558649999643), (3, 1.2180730909985868)]",0.5391507586368864
group,3,55,post,-3,64,anticlockwise,anticlockwise,correct,3.2553864670007897,ac,1040,0,500,solo,1.1805062559997168,gs,3,1.6662734920009825,2,"[(2, 0.0005214699995121919), (3, 1.3473131169994303), (3, 1.6670368269988103)]",0.5437981130798619
group,3,56,post,3,64,clockwise,clockwise,correct,0.8238415980013087,ca,1150,0,500,solo,0.8137576740009536,sg,4,2.418650670999341,3,"[(3, 0.00048134800090338103), (4, 2.1475947109993285), (4, 2.4194967479998013)]",0.4886088409268633
group,3,57,post,3,8,clockwise,clockwise,correct,0.7113942460000544,ac,1270,0,500,solo,0.737700859999677,sg,4,1.8022597939998377,1,"[(1, 0.0004940839990013046), (2, 0.8270774970005732), (3, 1.1313409169997612), (4, 1.5469460029999027), (4, 1.8030434180000157)]",0.5545446729943753
group,3,58,post,-3,32,clockwise,anticlockwise,wrong,0.7970726789990294,ca,700,10,500,solo,0.8674674599988066,gs,3,1.462758629999371,5,"[(5, 0.00046590500096499454), (4, 0.7278302949998761), (3, 1.2397909960000106), (3, 1.4634739520006406)]",0.42214170795486516
group,3,59,post,3,16,clockwise,clockwise,correct,0.5183925339988491,ac,850,10,500,solo,0.7759313570004451,sg,4,1.5353748809993704,4,"[(4, 0.0005065380009909859), (4, 1.536373355998876)]",0.41567422017791655
group,3,60,post,-3,16,anticlockwise,anticlockwise,correct,1.144732128999749,ca,1150,0,500,solo,0.5452402859991707,sg,3,1.392809799999668,6,"[(6, 0.00048211800094577484), (5, 0.6259215909994964), (4, 0.8498867729995254), (3, 1.0577241819992196), (3, 1.3937795519996143)]",0.52042124998649
group,3,61,pre,3,64,anticlockwise,clockwise,wrong,0.8342135050006618,ac,850,10,500,solo,1.7748108040013904,sg,3,0.9995969060000789,4,"[(4, 0.0004978719989594538), (3, 0.6487057369995455), (3, 1.0004442560002644)]",0.40782068000395194
group,3,62,post,3,32,clockwise,clockwise,correct,0.9010259540009429,ac,1400,0,500,solo,0.9998128639999777,gs,3,2.053507365000769,2,"[(2, 0.00047789800009923056), (3, 0.822465380999347), (4, 1.0465230610006984), (3, 1.7823563609999837), (3, 2.0542842790000577)]",0.5384852341744963
group,3,63,post,-3,8,anticlockwise,anticlockwise,correct,0.6685453459995188,ac,590,10,500,solo,0.9846205760004523,gs,3,1.3365367019996484,2,"[(2, 0.0004840139990847092), (3, 0.5373937439999281), (4, 0.7775829919992248), (3, 1.1133392850006203), (3, 1.3373576659996615)]",0.44280963812085633
group,3,64,pre,3,32,clockwise,clockwise,correct,0.8255296709994582,ac,1040,0,500,solo,0.8362446629998885,gs,3,1.11894569299875,3,"[(3, 0.0005211040006543044), (3, 1.1198581449989433)]",0.5111919437718506
group,3,65,post,3,8,clockwise,clockwise,correct,0.6832290309994278,ca,770,10,500,solo,1.1430083830000513,gs,4,0.7986784550012089,4,"[(4, 0.0004996419993403833), (4, 0.7995059700006095)]",0.4489135183203073
group,3,66,post,3,64,clockwise,clockwise,correct,0.9952717480009596,ac,1040,0,500,solo,0.6577497470007074,sg,4,1.1340174920005666,5,"[(5, 0.0005056530008005211), (4, 0.590801026999543), (4, 1.1348828459995275)]",0.5621620978337776
group,3,67,post,-3,32,anticlockwise,anticlockwise,correct,0.9013151019989891,ca,550,0,500,solo,0.903851864999524,sg,4,0.8260810499996296,4,"[(4, 0.0004933489999530138), (4, 0.8268392770005448)]",0.5432108905954827
group,3,68,post,3,32,clockwise,clockwise,correct,1.2634913269994286,ac,1150,-10,500,solo,1.0751704450012767,gs,3,2.254421130999617,5,"[(5, 0.0005030590000387747), (4, 0.607308489999923), (3, 1.0074618859998736), (3, 2.255433415999505)]",0.5117339328558521
group,3,69,post,-3,16,anticlockwise,anticlockwise,correct,0.9578230490005808,ca,850,0,500,solo,0.7981779980000283,sg,3,1.3644946829990658,1,"[(1, 0.0005102960003569024), (2, 0.6136313110000629), (3, 0.8695374859998992), (3, 1.3652705379990948)]",0.4470781331999108
group,3,70,post,3,16,clockwise,clockwise,correct,0.609918470001503,ca,770,10,500,solo,0.9601258040001994,gs,3,1.1192634569997608,1,"[(1, 0.0004964250001648907), (2, 0.5922138789992459), (3, 0.7842632779993437), (3, 1.1201274979994196)]",0.5594325951182344
group,3,71,post,-3,8,anticlockwise,anticlockwise,correct,2.171561536999434,ac,550,10,500,solo,1.2123627689998102,sg,3,1.2819366559997434,2,"[(2, 0.0005039469997427659), (3, 0.6908606549986871), (3, 1.2828582849997474)]",0.45459657153675115
group,3,72,post,-3,64,anticlockwise,anticlockwise,correct,1.7468095189997257,ca,1270,10,500,solo,0.8673165489999519,gs,3,0.7917114569991099,3,"[(3, 0.0005077650002931478), (3, 0.7926223670001491)]",0.5424796550714005
group,3,73,post,-3,8,anticlockwise,anticlockwise,correct,0.688654374998805,ac,500,-10,500,group,3.1641445989989734,sg,3,1.476130719998764,1,"[(1, 0.0005090180002298439), (2, 0.9330838859987125), (3, 1.1569718989994726), (3, 1.476891476999299)]",0.4241152233648927
group,3,74,post,3,8,clockwise,clockwise,correct,0.46083170299971243,ac,590,10,500,solo,1.6489558140001463,gs,4,1.9894717540009879,1,"[(1, 0.0005152720004844014), (2, 0.6145173940003588), (3, 0.8224261079994903), (4, 1.2704597619995184), (4, 1.9903484259994002)]",0.568396895618867
group,3,75,post,-3,32,anticlockwise,anticlockwise,correct,1.2455460950004635,ca,1040,-10,500,solo,1.0903413350006304,gs,3,3.1164052370004356,4,"[(4, 0.0005159689990250627), (3, 2.1415100209997036), (3, 3.1174004079985025)]",0.48735815345328387
group,3,76,post,-3,16,anticlockwise,anticlockwise,correct,0.8084563490010623,ac,770,0,500,solo,0.7346110569997109,gs,3,0.8715891430001648,2,"[(2, 0.0004976079999323701), (3, 0.5527056829996582), (3, 0.8723879289991601)]",0.48272028203564676
group,3,77,pre,-3,32,anticlockwise,anticlockwise,correct,1.4643733159991825,ac,940,10,500,solo,0.9344890330012277,gs,3,1.7481765669999731,6,"[(6, 0.0005162520010344451), (5, 0.9010426219992951), (4, 1.109117972000604), (3, 1.5411610339997424), (3, 1.749117354000191)]",0.5072835798633752
group,3,78,post,-3,64,clockwise,anticlockwise,wrong,0.7270410860000993,ca,640,0,500,solo,1.0560027129995433,gs,3,1.0046630419983558,1,"[(1, 0.0004906850008410402), (2, 0.5576565529991058), (3, 0.7656264939996618), (3, 1.0055782170002203)]",0.42717083108167775
group,3,79,post,3,32,clockwise,clockwise,correct,0.9204592389996833,ac,590,10,500,solo,0.6981067300002906,sg,3,1.0592255089995888,2,"[(2, 0.0005024980000598589), (3, 0.6442496929994377), (3, 1.0600041929992585)]",0.5856351240278685
group,3,80,post,3,64,anticlockwise,clockwise,wrong,1.5058232669998688,ca,550,10,500,solo,0.9246973449990037,sg,4,1.4692541210006311,4,"[(4, 0.0004841539994231425), (5, 0.7181543890001194), (4, 1.214170646000639), (4, 1.47028046000014)]",0.45697186153541725
group,3,81,post,3,16,clockwise,clockwise,correct,0.7919423389994336,ac,640,0,500,solo,0.7828714549996221,sg,4,1.0935585499992158,2,"[(2, 0.0004972110000380781), (3, 0.6146635880013491), (4, 0.7584330010013218), (4, 1.0944403960002091)]",0.5307735750928146
group,3,82,post,3,8,clockwise,clockwise,correct,0.6864291869987937,ac,1400,10,500,solo,0.9864883249993,gs,4,1.0330643199995393,2,"[(2, 0.00047038699995027855), (3, 0.5702014210000925), (4, 0.74600909199944), (4, 1.033961694998652)]",0.5508744146006752
group,3,83,post,-3,16,anticlockwise,anticlockwise,correct,1.1604704219989799,ac,590,0,500,solo,0.9443242600009398,gs,4,0.9923983509997925,2,"[(2, 0.0004947199995513074), (3, 0.5614205180008867), (4, 0.7372968849995232), (4, 0.9931672410002648)]",0.4525665683481461
group,3,84,post,-3,64,anticlockwise,anticlockwise,correct,1.648930790999657,ac,700,10,500,solo,1.0776812270014489,sg,3,1.2326624899997114,2,"[(2, 0.0004751880005642306), (3, 0.7537808650013176), (3, 1.23356261400113)]",0.4719501695718536
group,3,85,post,-3,8,anticlockwise,anticlockwise,correct,0.7243759789998876,ac,1040,-10,500,solo,0.9584665889997268,gs,3,0.9094914119996247,2,"[(2, 0.0004819370005861856), (3, 0.5905511410001054), (3, 0.9104505459999928)]",0.5450274171040084
group,3,86,post,3,32,clockwise,clockwise,correct,0.7654841519997717,ac,550,10,500,solo,0.8056692570007726,sg,4,1.3086170129990933,4,"[(4, 0.0007527529996878002), (4, 1.3094165800011979)]",0.5529905675521246
group,3,87,pre,-3,16,anticlockwise,anticlockwise,correct,0.774791155999992,ac,1400,-10,500,solo,1.1146743230001448,sg,3,0.9418477710005391,3,"[(3, 0.0004765499998029554), (3, 0.9428601939998771)]",0.47076215815521
group,3,88,post,3,64,clockwise,clockwise,correct,0.8759073069995793,ca,1270,10,500,solo,0.9115149030003522,gs,4,1.2165514869993785,5,"[(5, 0.0004976609998266213), (4, 0.6097734739996667), (4, 1.2173340469998948)]",0.5637572688199508
group,3,89,post,3,16,clockwise,clockwise,correct,0.8416572000005544,ca,1040,10,500,solo,0.7830907780007692,gs,3,1.0615833680003561,3,"[(3, 0.0004806910001207143), (3, 1.0625875980003912)]",0.4296490309178148
group,3,90,post,-3,32,anticlockwise,anticlockwise,correct,0.9787580699994578,ac,1270,0,500,solo,1.1062288499997521,sg,3,0.8448498739999195,3,"[(3, 0.0005392130005930085), (3, 0.8455733239989058)]",0.47168993826493877
group,3,91,post,-3,64,anticlockwise,anticlockwise,correct,0.9758548560002964,ca,1400,0,500,solo,0.7031203309998091,sg,4,1.4018471090003004,6,"[(6, 0.0004885250000370434), (5, 0.6988856380012294), (4, 0.9387931050005136), (4, 1.4026474410002265)]",0.5286057419041785
group,3,92,post,3,8,clockwise,clockwise,correct,0.48881308999989415,ac,550,10,500,solo,1.1645892239994282,sg,5,0.7246166040004027,5,"[(5, 0.0004732209999929182), (5, 0.7256919299998117)]",0.4889240701898688
group,3,93,post,-3,32,anticlockwise,anticlockwise,correct,0.8913283029996819,ca,850,0,500,solo,0.7504198839997116,sg,4,1.398843640999985,3,"[(3, 0.0005022380009904737), (4, 0.7279364240002906), (4, 1.399688002999028)]",0.5451414651826862
group,3,94,post,-3,16,clockwise,anticlockwise,wrong,1.1714760960003332,ac,640,10,500,solo,0.7630793550015369,gs,4,1.1874247010000545,3,"[(3, 0.0005004699996788986), (4, 0.5485060530008923), (4, 1.1882787160011503)]",0.5564571522077812
group,3,95,post,3,64,clockwise,clockwise,correct,1.992541182999048,ca,940,10,500,solo,0.720363783000721,gs,3,1.401254477999828,1,"[(1, 0.0004849109991482692), (2, 0.7303057170011016), (3, 0.9702258630004508), (3, 1.4021917840000242)]",0.5321734919640991
group,3,96,post,3,32,clockwise,clockwise,correct,0.746916677999252,ac,850,-10,500,solo,0.8364158019994647,gs,4,1.5765275940011634,6,"[(6, 0.0005051919997640653), (5, 0.6019837870007905), (4, 0.7777508180006407), (4, 1.577803068999856)]",0.4199077119117687
group,3,97,pre,-3,32,anticlockwise,anticlockwise,correct,0.6671648709998408,ac,1150,0,500,solo,1.4691659089985478,gs,3,2.5187414249994617,6,"[(6, 0.0004828830005862983), (5, 1.4958705349999946), (4, 1.6877860629992938), (3, 2.279794545000186), (3, 2.519557342000553)]",0.4636934340998735
group,3,98,post,3,16,clockwise,clockwise,correct,0.7644938159992307,ca,1270,-10,500,solo,0.7405882289986039,gs,5,1.117860375001328,3,"[(3, 0.0004978270007995889), (4, 0.49500083700149844), (5, 0.8468367090008542), (5, 1.1187431590005872)]",0.40047470145071573
group,3,99,post,-3,8,anticlockwise,anticlockwise,correct,1.0650713529994391,ca,850,10,500,solo,0.8694399539999722,sg,4,0.9049273590007942,5,"[(5, 0.0004911039995931787), (4, 0.5860134069989726), (4, 0.9058927440000843)]",0.4520274848641285
group,3,100,pre,-3,16,anticlockwise,anticlockwise,correct,0.8280888669996784,ca,700,-10,500,solo,1.4019957139989856,gs,3,1.1688759259996004,4,"[(4, 0.00048208000043814536), (3, 0.9139176339995174), (3, 1.169770647000405)]",0.42644215021814813
group,3,101,post,-3,64,anticlockwise,anticlockwise,correct,1.0322191609993752,ac,850,10,500,solo,0.8541227309997339,gs,3,1.5620189589990332,6,"[(6, 0.000496107000799384), (5, 0.523146966999775), (4, 0.7469620459996804), (3, 1.3551315429995157), (3, 1.562795568999718)]",0.5196802294551288
group,3,102,post,3,8,clockwise,clockwise,correct,0.5763934020014858,ac,1040,-10,500,solo,0.991803152999637,gs,5,2.1901416609998705,2,"[(2, 0.0004854580001847353), (3, 0.687247916999695), (4, 1.6312070919993857), (5, 1.9031067500000063), (5, 2.1910249760003353)]",0.5265336386549614
group,3,103,post,-3,32,anticlockwise,anticlockwise,correct,1.184159919999729,ac,770,0,500,solo,1.1913124059992697,sg,3,2.9253371609993337,1,"[(1, 0.0005001389999961248), (2, 0.6223906800005352), (3, 0.8142980630000238), (4, 1.1503704040005687), (3, 2.670370822001132), (3, 2.9261995920005575)]",0.44563358391306496
group,3,104,post,-3,8,anticlockwise,anticlockwise,correct,0.860644352998861,ca,700,0,500,solo,0.7369038509987149,sg,3,1.7537623370008077,1,"[(1, 0.0005298260002746247), (2, 0.6668065329995443), (3, 1.066764470000635), (3, 1.7547701750008855)]",0.5480637943157065
group,3,105,post,3,16,clockwise,clockwise,correct,0.8244778730004327,ca,940,0,500,solo,0.8299122080006782,gs,5,0.9943905769996491,5,"[(5, 0.0004970640002284199), (5, 0.9953639549985382)]",0.5717850346995359
group,3,106,post,3,32,clockwise,clockwise,correct,0.869300423999448,ca,940,0,500,solo,0.889550413001416,sg,4,1.8834119130006002,5,"[(5, 0.0004946790013491409), (4, 1.372490697000103), (4, 1.8843899729999976)]",0.4117701959040799
group,3,107,post,-3,16,anticlockwise,anticlockwise,correct,1.6592584400004853,ac,940,-10,500,solo,0.6872746509998251,gs,4,1.0183091939998121,6,"[(6, 0.0004840849996980978), (5, 0.507411859000058), (4, 0.6673233159999654), (4, 1.0192244019999634)]",0.4041054650495331
group,3,108,post,3,64,clockwise,clockwise,correct,0.6658787739997933,ca,850,-10,500,solo,0.9181870739994338,sg,4,1.0469745040009002,3,"[(3, 0.0005125530005898327), (4, 0.6319083959988347), (4, 1.0478388100000302)]",0.46051407987924453
group,4,1,pre,3,32,anticlockwise,clockwise,wrong,0.6385837180005183,ca,700,0,500,group,2.4555404860002454,gs,4,1.3556289259995538,5,"[(5, 0.0003761550015042303), (4, 1.1488721309997345), (4, 1.3567988310005603)]",0.4399533637492846
group,4,2,post,3,8,clockwise,clockwise,correct,0.8282247480001388,ca,700,10,500,solo,0.7375342839986843,gs,5,1.641385058999731,3,"[(3, 0.00047823199929553084), (4, 0.506340502999592), (5, 0.714102694999383), (5, 1.642323205998764)]",0.5061572428379124
group,4,3,post,-3,32,anticlockwise,anticlockwise,correct,0.49939302599887014,ca,940,0,500,solo,1.061963428001036,sg,2,1.089378785000008,3,"[(3, 0.0004848570006288355), (2, 0.8824514019997878), (2, 1.0902112000003399)]",0.4022281298422213
group,4,4,post,3,64,anticlockwise,clockwise,wrong,1.002345642000364,ca,700,10,500,group,0.7603419479983131,sg,4,1.7921851759983838,4,"[(4, 0.0004844049999519484), (3, 0.7530860989991197), (4, 1.345114444000501), (4, 1.7930613009993976)]",0.5638560078998557
group,4,5,post,-3,16,anticlockwise,anticlockwise,correct,0.5948749170001975,ac,1040,10,500,solo,0.6096116369990341,gs,5,1.2144412429988733,2,"[(2, 0.0004766299989569234), (3, 0.5753914559991244), (4, 0.8153274929991312), (5, 0.9912451599993801), (5, 1.2153018809985952)]",0.4167942614633775
group,4,6,post,3,32,anticlockwise,clockwise,wrong,0.9315000269998563,ca,1400,10,500,solo,0.693019643000298,gs,1,1.055072872000892,2,"[(2, 0.0004774509998242138), (1, 0.6721005780000269), (1, 1.0559583449994534)]",0.5332077064109807
group,4,7,post,3,16,anticlockwise,clockwise,wrong,0.6019064060001256,ca,700,0,500,group,0.5995740569996997,gs,5,0.8860305560010602,4,"[(4, 0.0004974140010745032), (5, 0.6628259359986259), (5, 0.8866908629988757)]",0.5702796211894188
group,4,8,post,-3,8,anticlockwise,anticlockwise,correct,0.7315930270015087,ac,590,10,500,solo,1.0935669069986034,gs,6,1.407647308000378,2,"[(2, 0.00047594699935871176), (3, 0.768549209999037), (4, 0.9447754979992169), (5, 1.088428830000339), (6, 1.2325467059999937), (6, 1.4084530839991203)]",0.4392578972608664
group,4,9,post,-3,64,anticlockwise,anticlockwise,correct,0.8781752869999764,ac,1270,-10,500,solo,1.0738178009996773,sg,4,1.7095543189989257,6,"[(6, 0.000483030999021139), (5, 0.44650449300024775), (4, 0.6063126530007139), (4, 1.7102420880000864)]",0.5037668038244352
group,4,10,post,-3,64,anticlockwise,anticlockwise,correct,0.7698773249994701,ac,550,0,500,solo,2.3462785749998147,gs,3,2.0978849699986313,2,"[(2, 0.00047501500012003817), (3, 0.7389316889984912), (3, 2.09883950099902)]",0.4551225205775582
group,4,11,post,3,8,clockwise,clockwise,correct,0.7437168800006475,ac,770,10,500,group,1.0719732029992883,sg,5,1.9795316439995077,1,"[(1, 0.0005008949992770795), (2, 0.5245731079994584), (3, 0.7325261820005835), (4, 0.9083879169993452), (3, 1.3085386279999511), (4, 1.6284161509993282), (5, 1.804445821000627), (5, 1.9804142240009242)]",0.438533099389639
group,4,12,post,-3,32,anticlockwise,anticlockwise,correct,0.8043192550012463,ac,1040,-10,500,solo,0.7473057030001655,sg,2,1.0427694490008435,2,"[(2, 0.00048303000039595645), (2, 1.043644293999023)]",0.4756095092129913
group,4,13,post,3,16,clockwise,clockwise,correct,0.8318761779992201,ac,1400,-10,500,solo,0.46909613400021044,gs,3,1.1605121770007827,1,"[(1, 0.0004842140006076079), (2, 0.3932959279991337), (3, 0.5694276480007829), (4, 0.7291868880001857), (3, 0.9851303159994131), (3, 1.1613278559998435)]",0.5095761350165484
group,4,14,pre,3,32,anticlockwise,clockwise,wrong,0.5550758930003212,ac,1150,10,500,solo,2.554502644999957,gs,5,2.9059648149996065,2,"[(2, 0.0004746470003738068), (3, 1.6753840620003757), (4, 1.8671740040008444), (5, 2.155322092999995), (5, 2.9072079160014255)]",0.5216418166440336
group,4,15,post,-3,16,anticlockwise,anticlockwise,correct,0.6513112160009769,ca,1270,0,500,solo,0.6475248820006527,sg,5,1.044187208999574,6,"[(6, 0.00050234099944646), (5, 0.5331719450005039), (5, 1.0450068379996083)]",0.5535609775006542
group,4,16,post,3,32,anticlockwise,clockwise,wrong,0.5957222010001715,ca,700,10,500,group,1.2185224109998671,sg,3,1.0640667859988753,2,"[(2, 0.0004711740002676379), (3, 0.8410961329991551), (3, 1.0648162409997894)]",0.4287875174938924
group,4,17,post,3,64,anticlockwise,clockwise,wrong,0.7878416300009121,ac,1270,0,500,solo,0.8753696490002767,sg,3,3.118125904000408,5,"[(5, 0.00047288099995057564), (4, 1.3591613030002918), (3, 1.5512676970010943), (2, 2.1112619579998864), (3, 2.943335874000695), (3, 3.1192607459997816)]",0.4996209488251494
group,4,18,post,-3,8,anticlockwise,anticlockwise,correct,0.6305801950002206,ca,1150,10,500,solo,0.6283454519998486,sg,6,0.5458654920003028,5,"[(5, 0.00047378900126204826), (6, 0.3869520410007681), (6, 0.5467585469996266)]",0.5362965828624571
group,4,19,post,-3,64,anticlockwise,anticlockwise,correct,0.9448290109994559,ac,1400,0,500,solo,1.0259516570004052,sg,1,1.0231876719990396,3,"[(3, 0.0005165130005480023), (2, 0.6722927070004516), (1, 0.8161677600000985), (1, 1.0239729069999157)]",0.5275118715390033
group,4,20,post,3,64,anticlockwise,clockwise,wrong,0.733838840998942,ac,850,-10,500,group,0.9670002359998762,gs,4,1.3342329269999027,6,"[(6, 0.0004869660006079357), (5, 0.4551733999996941), (4, 0.7110582549994433), (4, 1.3351425019991439)]",0.48762777051753525
group,4,21,post,-3,8,anticlockwise,anticlockwise,correct,0.7738208390001091,ca,940,-10,500,solo,0.5261376800008293,gs,5,2.142654985000263,5,"[(5, 0.0004869479998887982), (4, 0.5915765650006506), (5, 1.1835800839999138), (6, 1.327491533000284), (5, 1.7596723360002215), (5, 2.143531965000875)]",0.5581385126300988
group,4,22,post,3,8,clockwise,clockwise,correct,0.7835454100004426,ca,590,10,500,solo,1.670749032000458,gs,4,2.37766875700072,5,"[(5, 0.0004954450014338363), (4, 1.2905592639999668), (4, 2.3787934419997327)]",0.5022552839742243
group,4,23,post,3,16,anticlockwise,clockwise,wrong,0.5109700919983879,ca,550,-10,500,group,0.720378793999771,sg,4,1.450560792000033,5,"[(5, 0.0004752950007969048), (4, 0.4756894940001075), (4, 1.4515123820001463)]",0.5756570428022978
group,4,24,post,3,32,anticlockwise,clockwise,wrong,0.5657045769985416,ac,850,10,500,solo,0.9014556860001903,sg,2,1.384672624999439,5,"[(5, 0.00048187100037466735), (4, 0.31369733899919083), (3, 0.5216225669992127), (2, 1.1775827659985225), (2, 1.385440934998769)]",0.5391652420989863
group,4,25,post,-3,16,anticlockwise,anticlockwise,correct,0.5992626920015027,ac,640,10,500,solo,2.2303396280003653,sg,5,1.683451729000808,2,"[(2, 0.0004775519992108457), (1, 0.5165312329991139), (2, 0.9324630039991462), (3, 1.0925136629994086), (4, 1.2683748260005814), (5, 1.4282499220007594), (5, 1.6843982339996728)]",0.49226467985540023
group,4,26,pre,3,16,clockwise,clockwise,correct,0.6289287179988605,ac,500,-10,500,group,2.0489861009991728,sg,6,1.1368209590000333,2,"[(2, 0.0004986830008419929), (3, 0.5939658079987566), (4, 0.7217914809989452), (5, 0.8658590719987842), (6, 0.9937812440002745), (6, 1.1377655109990883)]",0.5338381931198758
group,4,27,post,-3,32,anticlockwise,anticlockwise,correct,0.9025409580008272,ca,770,0,500,solo,0.761565344999326,sg,3,1.296940435999204,2,"[(2, 0.00048151000009966083), (3, 0.6580737709991809), (3, 1.297839283999565)]",0.596644474575803
group,4,28,post,3,8,clockwise,clockwise,correct,0.6245468640008767,ac,640,0,500,solo,1.5509684779990494,sg,1,0.5030237999999372,2,"[(2, 0.00047922100020514335), (1, 0.21621085399965523), (1, 0.5039646989989706)]",0.5771029987141261
group,4,29,post,3,16,clockwise,clockwise,correct,0.5526726940006483,ac,770,0,500,solo,0.6972294000006514,sg,2,0.8198036570011027,1,"[(1, 0.00048028299897850957), (2, 0.43696279100004176), (2, 0.8206516119989828)]",0.5093197703726338
group,4,30,post,-3,16,anticlockwise,anticlockwise,correct,1.032487245000084,ac,590,-10,500,group,3.270091759999559,sg,6,1.1775166220013489,2,"[(2, 0.00047823600107221864), (3, 0.3946604220000154), (4, 0.6024083749998681), (5, 0.7785002169985091), (6, 0.9703510489998735), (6, 1.1783262459994148)]",0.5261197635901609
group,4,31,post,3,32,clockwise,clockwise,correct,0.7840998680003395,ca,640,-10,500,group,2.504061481999088,sg,4,1.3059636960006173,6,"[(6, 0.0004969019992131507), (5, 0.7469829360015865), (4, 0.9388526890015783), (4, 1.306948559000375)]",0.5324288670931576
group,4,32,post,-3,32,anticlockwise,anticlockwise,correct,1.2247447760000796,ca,850,0,500,solo,1.6306425179991493,sg,5,2.1468743799996446,6,"[(6, 0.00048064600014186), (5, 0.6119221949993516), (4, 0.7877365599997574), (3, 0.9637202789999719), (2, 1.139831595999567), (3, 1.4438682599993626), (4, 1.6196077250006056), (5, 1.7798566210003628), (5, 2.147799825999755)]",0.597508710722817
group,4,33,post,-3,8,anticlockwise,anticlockwise,correct,0.5476153420004266,ca,770,0,500,solo,0.4679142109998793,gs,6,0.7110351950013865,3,"[(3, 0.00047312999959103763), (4, 0.29609164700013935), (5, 0.4399716220013943), (6, 0.5999203139999736), (6, 0.7118925590002618)]",0.5336204138874822
group,4,34,post,3,64,anticlockwise,clockwise,wrong,0.7659496899996157,ac,940,-10,500,solo,0.8385695319993829,sg,1,1.067155423001168,5,"[(5, 0.0004991410005459329), (4, 0.33218448700063163), (3, 0.5401518540002144), (2, 0.7001486570006819), (1, 0.8760613720005495), (1, 1.067983037999511)]",0.5803547498410053
group,4,35,pre,3,32,anticlockwise,clockwise,wrong,0.47366245500052173,ac,550,10,500,group,1.4391241180001089,sg,3,1.788819360999696,6,"[(6, 0.000480321999930311), (5, 0.8778775010014215), (4, 1.037646680000762), (3, 1.2456332570000086), (3, 1.7897337720005453)]",0.5779086090537354
group,4,36,post,-3,64,anticlockwise,anticlockwise,correct,0.5874821119996341,ca,1150,-10,500,solo,0.555219865998879,gs,3,1.339657635000549,2,"[(2, 0.0005139240001881262), (3, 0.3646800059996167), (3, 1.340343836998727)]",0.5320791810971945
group,4,37,post,-3,32,anticlockwise,anticlockwise,correct,1.197876971000369,ac,640,-10,500,group,0.6922320739995484,sg,5,2.0139704539997183,2,"[(2, 0.0004885730013484135), (3, 0.35090029400089406), (2, 0.6390029600006528), (3, 0.8949350120001327), (4, 1.0868527610000456), (5, 1.2628203120002581), (5, 2.014901483000358)]",0.49853385564551744
group,4,38,post,3,16,clockwise,clockwise,correct,0.7236749799994868,ca,500,10,500,group,1.0049924920003832,gs,4,1.8678111120007088,2,"[(2, 0.0005166200007806765), (3, 1.3888213089994679), (4, 1.612773692000701), (4, 1.8686359769999399)]",0.5323152646247715
group,4,39,post,-3,64,anticlockwise,anticlockwise,correct,0.634862606999377,ca,640,10,500,solo,1.704459054999461,gs,5,1.4345979820009234,6,"[(6, 0.0005051409989391686), (5, 1.0356616930002929), (5, 1.4355067739998049)]",0.42325636381792736
group,4,40,pre,3,8,clockwise,clockwise,correct,0.6331489639997017,ca,850,-10,500,solo,1.0236253080001916,gs,4,1.7821835030008515,3,"[(3, 0.00048011199942266103), (4, 1.3511312939990603), (4, 1.7830653689998144)]",0.597903377149281
group,4,41,post,-3,16,anticlockwise,anticlockwise,correct,0.596032206000018,ac,850,-10,500,solo,0.626881317999505,sg,5,1.8881347540009301,3,"[(3, 0.0004811329999938607), (4, 1.40914850199988), (5, 1.56897816899982), (5, 1.888958310999442)]",0.5263352262127104
group,4,42,post,-3,8,anticlockwise,anticlockwise,correct,0.5402527089991054,ca,700,0,500,solo,0.5739574359995459,sg,5,0.8932756829999562,6,"[(6, 0.0004961039994668681), (5, 0.5263650260003487), (5, 0.8940394629989896)]",0.4597947438503071
group,4,43,post,3,8,clockwise,clockwise,correct,0.7236326100010047,ca,500,-10,500,group,0.9258669589999045,gs,6,1.213886289000584,4,"[(4, 0.0004947460001858417), (5, 0.894999189000373), (6, 1.0387144249998528), (6, 1.2148070839994034)]",0.40750582953428804
group,4,44,post,3,32,clockwise,clockwise,correct,0.5137686190009845,ca,500,0,500,group,0.6429041449991928,sg,5,1.3427856910002447,4,"[(4, 0.0004899909999949159), (5, 1.1037416430008307), (5, 1.3437353710014577)]",0.5741592591575762
group,4,45,post,3,64,clockwise,clockwise,correct,0.5613552459999482,ac,640,-10,500,solo,0.49701515100059623,gs,1,1.795008697999947,4,"[(4, 0.00048129400056495797), (3, 0.8681356510005571), (2, 1.10796576300163), (1, 1.539925019000293), (1, 1.7958595130003232)]",0.4819636082405041
group,4,46,post,3,16,clockwise,clockwise,correct,0.6565707879999536,ac,1270,-10,500,solo,0.7969424860002619,sg,2,0.7869315589996404,2,"[(2, 0.0004809789988939883), (2, 0.7877814019993821)]",0.5417312873342729
group,4,47,post,-3,8,anticlockwise,anticlockwise,correct,0.5527037039992138,ac,1040,0,500,solo,0.8091552989990305,sg,6,1.0545953889995872,2,"[(2, 0.0004842140006076079), (3, 0.30368693900163635), (4, 0.4795289520006918), (5, 0.6554905430002691), (6, 0.7992687830010254), (6, 1.0554233090006164)]",0.5510466025067001
group,4,48,post,3,32,anticlockwise,clockwise,wrong,0.5529534899997088,ac,940,0,500,solo,0.8422668129987869,sg,2,1.0543674740001734,6,"[(6, 0.0004948360001435503), (5, 0.27124897400062764), (4, 0.4473440199999459), (3, 0.6072801030004484), (2, 0.7673750119993201), (2, 1.0552655139999843)]",0.550318627685539
group,4,49,post,-3,64,anticlockwise,anticlockwise,correct,0.6026748730000691,ca,700,10,500,solo,0.6173557040001469,sg,4,1.3021270980007102,5,"[(5, 0.00047035499846970197), (4, 0.6791311029992357), (4, 1.3027961030002189)]",0.5108562732880905
group,4,50,post,3,64,anticlockwise,clockwise,wrong,0.5027147860000696,ca,1400,10,500,solo,0.5047753419985384,gs,2,1.4509208319996105,5,"[(5, 0.0004759580006066244), (4, 0.5560786189998908), (3, 0.7959490610010107), (2, 1.131881968000016), (2, 1.4517208010001923)]",0.5891180335720054
group,4,51,post,3,8,clockwise,clockwise,correct,0.6759322340003564,ca,1270,0,500,solo,0.7672935999999027,sg,5,0.9022350449995429,2,"[(2, 0.0005044059998908779), (3, 0.3434953450014291), (4, 0.4711055630014016), (5, 0.6629910600004223), (5, 0.9029981370003952)]",0.598052235978791
group,4,52,pre,-3,64,anticlockwise,anticlockwise,correct,0.5978752010014432,ac,1040,-10,500,solo,1.144263846001195,sg,4,1.5237097589997575,5,"[(5, 0.00047389599967573304), (4, 1.3326041990003432), (4, 1.524438069000098)]",0.4009667885571916
group,4,53,post,-3,32,clockwise,anticlockwise,wrong,0.703486044998499,ac,590,10,500,group,0.7304117029998451,sg,5,1.299084217998825,4,"[(4, 0.000511795000420534), (3, 0.6120722710002156), (4, 0.9321436690006522), (5, 1.108037478001279), (5, 1.2998325170010503)]",0.457131326228933
group,4,54,post,-3,16,anticlockwise,anticlockwise,correct,0.6479092959998525,ca,700,10,500,solo,0.5317190799996752,sg,6,1.7486899089999497,2,"[(2, 0.00047817100130487233), (3, 0.42161489499994786), (4, 0.7096370609997393), (5, 1.0456354849993659), (6, 1.2057219660000555), (6, 1.7494827749997057)]",0.46233220173311707
group,4,55,post,3,16,clockwise,clockwise,correct,0.42525455900067755,ac,940,10,500,solo,1.2471032540015585,sg,1,1.3782657780011505,6,"[(6, 0.0004981549991498468), (5, 0.5955079890009074), (4, 0.7552391240005818), (3, 0.9151977060009813), (2, 1.0591557230000035), (1, 1.1871612700015248), (1, 1.37900936799997)]",0.49959412286421345
group,4,56,post,-3,32,anticlockwise,anticlockwise,correct,0.48072314499950153,ca,500,10,500,group,1.2198934040006861,gs,6,1.353321631999279,2,"[(2, 0.0004778740003530402), (3, 0.6662595240013616), (4, 0.890296773000955), (5, 1.0342892780008697), (6, 1.1942683890010812), (6, 1.3540114420011378)]",0.5432878525250736
group,4,57,post,3,8,clockwise,clockwise,correct,0.5738261599999532,ac,550,-10,500,group,1.0698988459989778,sg,4,1.2730196440006694,1,"[(1, 0.00046876200030965265), (2, 0.48995637299958616), (3, 0.6498412129985809), (4, 0.8419731099984347), (4, 1.2739733449998312)]",0.41281994262136423
group,4,58,post,3,64,anticlockwise,clockwise,wrong,0.47506981500009715,ca,770,0,500,solo,0.511643013000139,gs,3,1.0247969780011772,1,"[(1, 0.000488292000227375), (2, 0.593849078999483), (3, 0.8015648669988877), (3, 1.025598780999644)]",0.528731627663075
group,4,59,post,-3,16,anticlockwise,anticlockwise,correct,0.6565695619992766,ac,940,10,500,solo,0.8446924270010641,sg,5,0.9134252240000933,4,"[(4, 0.0005076149991509737), (5, 0.3861709440006962), (5, 0.9141913900002692)]",0.443681349784999
group,4,60,post,3,32,clockwise,clockwise,correct,0.8976492479996523,ca,1040,10,500,solo,0.707755625999198,gs,3,1.2457492439989437,2,"[(2, 0.0005211369989410741), (3, 0.8468440140004532), (3, 1.2466384760009532)]",0.5518644145514551
group,4,61,pre,-3,32,anticlockwise,anticlockwise,correct,0.44375813899932837,ac,640,0,500,group,1.3409094369999366,gs,6,1.3124610759987263,2,"[(2, 0.0004839249995711725), (3, 0.7066138720001618), (4, 0.8814354400001321), (5, 1.0413819110017357), (6, 1.2013774080005533), (6, 1.3132734060000075)]",0.5465837354450378
