task,id,trial,ori_mean,ori_var,judge,answer,result,judge_rt,line_pos,payoff_sure,payoff_risky,payoff_jitter,choice,choice_rt,option_pos,rating,rating_rt,rating_init,rating_history,iti
solo,1,1,3,16,anticlockwise,clockwise,wrong,1.5501603259999683,ca,500,550,-10,sure,2.5341871040000115,rs,2,2.7434901209999225,2,"[(2, 0.0003651870001704083), (2, 2.744534718000068)]",0.4408391528205321
solo,1,2,-3,32,anticlockwise,anticlockwise,correct,1.2145472669999435,ca,500,700,10,risky,1.2044883389999086,rs,4,1.4977787379998517,3,"[(3, 0.000478086000384792), (4, 0.8107033790001879), (4, 1.4985030709999592)]",0.5757228247769007
solo,1,3,3,64,anticlockwise,clockwise,wrong,0.8530342260000907,ac,500,550,0,sure,2.2014375379999365,rs,2,2.615305054000146,3,"[(3, 0.00047911899991959217), (2, 1.896226944999853), (2, 2.616188071000124)]",0.5237358247700084
solo,1,4,3,8,clockwise,clockwise,correct,1.1882363229997281,ca,500,640,-10,risky,1.0848511580002196,sr,6,2.982970411000224,5,"[(5, 0.0006619539999519475), (6, 0.8717916340001466), (6, 2.983808156000123)]",0.5283563746137643
solo,1,5,-3,16,anticlockwise,anticlockwise,correct,3.3702864010001576,ca,500,1400,-10,risky,1.3863388959998701,rs,4,2.5378209360001165,2,"[(2, 0.00047215299991876236), (3, 0.9387535509999907), (4, 1.1466724720003185), (5, 1.386725695000223), (4, 2.090676220000205), (4, 2.538651779000247)]",0.40777262923864727
solo,1,6,-3,64,anticlockwise,anticlockwise,correct,1.4030757079999603,ac,500,770,-10,risky,1.242061681999985,sr,5,4.765944331000355,5,"[(5, 0.000481976000173745), (4, 2.254878166999788), (5, 2.862794924999889), (4, 4.126908811999783), (5, 4.51087388499991), (5, 4.766620841000076)]",0.5207093253694023
solo,1,7,-3,8,anticlockwise,anticlockwise,correct,0.9005295870001646,ac,500,850,-10,risky,1.0165486709997822,sr,6,1.6370828499998424,5,"[(5, 0.00048017300014180364), (6, 1.2061643379997804), (6, 1.6378356109999004)]",0.5356625927079957
solo,1,8,3,32,anticlockwise,clockwise,wrong,1.1183745069997713,ca,500,700,0,sure,1.881335802999729,rs,3,2.8523912290002045,3,"[(3, 0.0004883609999524197), (3, 2.8532087369999317)]",0.40990074192682824
solo,1,9,3,16,anticlockwise,clockwise,wrong,2.3450169939997068,ac,500,1540,0,risky,1.872906637000142,sr,2,1.0845531119998668,2,"[(2, 0.0004802079997716646), (2, 1.0853977560000203)]",0.5228449482303826
solo,1,10,-3,64,anticlockwise,anticlockwise,correct,1.0511473040000965,ac,500,640,10,sure,1.6718889889998536,rs,1,2.651507428000059,4,"[(4, 0.0004821389998141967), (3, 1.0205693610000708), (2, 1.228291929000079), (1, 1.420455180999852), (1, 2.6523029780000797)]",0.43916922270788145
solo,1,11,3,8,clockwise,clockwise,correct,1.2580266109998774,ac,500,1150,10,risky,0.7349450499996237,sr,6,1.9279368229999818,6,"[(6, 0.0004815039997083659), (6, 1.9287770300002194)]",0.45253499005821474
solo,1,12,3,64,anticlockwise,clockwise,wrong,3.394715774999895,ac,500,590,10,sure,2.178475742000046,sr,4,3.8883449539998765,1,"[(1, 0.00047835899977144436), (2, 1.2173039879999124), (3, 1.4252828439998666), (4, 2.449483040999894), (3, 3.057218131999889), (4, 3.441399980999904), (4, 3.889103385999988)]",0.46265391499947917
solo,1,13,3,32,clockwise,clockwise,correct,2.015822097999717,ca,500,640,0,sure,2.4705916579996483,sr,2,1.5455517639998106,4,"[(4, 0.0004874340002061217), (3, 0.7784024669999781), (2, 0.986379587999636), (2, 1.5463601980000021)]",0.4188841160796214
solo,1,14,-3,16,anticlockwise,anticlockwise,correct,0.6253699349999806,ac,500,700,-10,risky,0.7992011480000656,sr,6,0.8844184549998317,6,"[(6, 0.0004723009997178451), (6, 0.8852804660000402)]",0.5533059730242528
solo,1,15,-3,32,anticlockwise,anticlockwise,correct,1.4282788999998957,ca,500,550,10,risky,1.9856090670000413,sr,4,1.9451426290002019,5,"[(5, 0.00048134999997273553), (4, 1.0020229000001564), (4, 1.9460191350003697)]",0.5989597262704583
solo,1,16,-3,8,anticlockwise,anticlockwise,correct,1.0411679090002508,ca,500,1150,-10,risky,0.9108129179999196,sr,6,1.6159251789999871,2,"[(2, 0.0005785319999631611), (3, 0.6732623559996682), (4, 0.865192857999773), (5, 1.0409783339996466), (6, 1.2011582369996177), (6, 1.6170781639998495)]",0.5230180363965165
solo,1,17,-3,32,anticlockwise,anticlockwise,correct,0.7935436600000685,ac,500,1400,-10,risky,0.912435713999912,sr,5,1.7288362889999007,2,"[(2, 0.0005037129999436729), (3, 0.6742509149999023), (4, 0.8820918890000939), (5, 1.0421048829998654), (5, 1.7301452950000566)]",0.41333081810441774
solo,1,18,3,16,clockwise,clockwise,correct,1.0408087910000177,ca,500,1040,0,risky,0.6864952740002082,sr,5,1.4007312630001252,4,"[(4, 0.0004872549998253817), (5, 0.6978031700000429), (5, 1.4015808879998986)]",0.5779026349309814
solo,1,19,-3,64,anticlockwise,anticlockwise,correct,2.091296904000046,ac,500,940,10,sure,1.6462623810002697,sr,1,0.8351090420001128,1,"[(1, 0.0004884790000687644), (1, 0.8358902439999838)]",0.4271368499233712
solo,1,20,-3,8,anticlockwise,anticlockwise,correct,0.9335350289998132,ac,500,1400,0,risky,0.8540509389999897,sr,6,1.1940812640000331,4,"[(4, 0.00047990399980335496), (5, 0.6191128120003668), (6, 0.8111617690001367), (6, 1.19494320900003)]",0.5923080781516041
solo,1,21,3,64,clockwise,clockwise,correct,1.82133972299971,ca,500,770,0,sure,1.612233780999759,rs,3,3.713437788000192,6,"[(6, 0.00047889799998301896), (5, 1.4584465980001369), (4, 1.698292636000133), (3, 1.9383086560001175), (3, 3.714393745000052)]",0.5835103498924408
solo,1,22,-3,16,clockwise,anticlockwise,wrong,1.5916210550003598,ac,500,1040,-10,risky,0.6857517909998023,sr,4,1.288332623000315,2,"[(2, 0.0004904920001536084), (3, 0.6331896470001084), (4, 0.8411429180000596), (4, 1.2891201120000915)]",0.41947723890888705
solo,1,23,3,32,anticlockwise,clockwise,wrong,1.1930818310001996,ca,500,1270,0,sure,1.295513753999785,rs,2,0.8499987700001839,2,"[(2, 0.0004801549998774135), (2, 0.8507783279997057)]",0.591174158356953
solo,1,24,3,8,clockwise,clockwise,correct,1.235739133000152,ca,500,940,10,risky,1.3367590150000979,rs,5,1.945901701999901,1,"[(1, 0.000479884000014863), (2, 0.6509580980000464), (3, 0.8267880849998619), (4, 1.0027832410000883), (5, 1.178842971999984), (5, 1.9467966659999547)]",0.5896185996721237
solo,1,25,-3,32,anticlockwise,anticlockwise,correct,0.8341133879998779,ac,500,590,-10,risky,1.7675527690003037,rs,5,0.88794968100000915,5,"[(5, 0.00047998800027926336), (5, 0.8890285279999262)]",0.4994696092720269
solo,1,26,3,16,clockwise,clockwise,correct,1.0685716120001416,ca,500,850,-10,risky,1.0007712369997535,sr,6,1.9750688650001393,5,"[(5, 0.00047437300008823513), (6, 1.6881022100001246), (6, 1.975995943000271)]",0.4542879885435036
solo,1,27,3,64,clockwise,clockwise,correct,1.9494051369997578,ca,500,1400,0,risky,1.0944108880003114,sr,4,2.656311729999743,2,"[(2, 0.0004764280001836596), (3, 0.7213107059997128), (4, 0.9291621269999268), (5, 1.3772236079998947), (4, 2.0810309419998703), (4, 2.6571616090000134)]",0.5308660746590073
solo,1,28,3,8,clockwise,clockwise,correct,0.8642161210000268,ca,500,1400,0,risky,0.8355430359997627,sr,5,1.064236013000027,4,"[(4, 0.0005001039999115164), (5, 0.5374144120000892), (5, 1.0653652239998337)]",0.4352897607023599
solo,1,29,3,32,clockwise,clockwise,correct,2.593184887999996,ca,500,940,10,risky,2.59167934900006,rs,2,2.9903430210001716,3,"[(3, 0.0004756070002258639), (2, 2.3034990500000276), (2, 2.991156931000205)]",0.5927351027226795
solo,1,30,-3,64,anticlockwise,anticlockwise,correct,2.8280642190002254,ca,500,1150,10,sure,2.049149927000144,sr,1,2.3576880470000106,5,"[(5, 0.0004765589997077768), (4, 1.0465863449999233), (3, 1.2866881079999075), (2, 1.7344930550002573), (1, 1.9746625319999112), (1, 2.358580639000138)]",0.5556456730691272
solo,1,31,-3,8,anticlockwise,anticlockwise,correct,1.1033138970001346,ca,500,550,0,risky,1.5297520580002129,sr,6,1.5379431330002262,4,"[(4, 0.0004776060000040161), (5, 0.9790197940001235), (6, 1.1548539160003202), (6, 1.538719938000213)]",0.4831853423109388
solo,1,32,-3,16,clockwise,anticlockwise,wrong,2.746717359000286,ac,500,590,-10,sure,1.8272433120000642,rs,4,2.704187146000095,2,"[(2, 0.0004910220000056142), (3, 1.5850238009998066), (4, 1.7771506429999135), (4, 2.704987605000042)]",0.528684263760153
solo,1,33,-3,8,anticlockwise,anticlockwise,correct,0.8406753439999193,ac,500,770,10,risky,0.8140293010001187,sr,6,1.443131314999846,2,"[(2, 0.00048609499981466797), (3, 0.5322311649997573), (4, 0.7079351469997164), (5, 0.8841285159996914), (6, 1.0760069680000015), (6, 1.4438894549998622)]",0.5891579276772738
solo,1,34,3,64,clockwise,clockwise,correct,1.0279848899999706,ac,500,1270,-10,risky,1.0099756329996126,sr,4,1.166279146999841,1,"[(1, 0.0004895390002275235), (2, 0.3993444850002561), (3, 0.5912283010002284), (4, 0.7832992920002653), (4, 1.1671737450001274)]",0.40574077202630776
solo,1,35,-3,16,anticlockwise,anticlockwise,correct,1.7809957279996524,ac,500,550,-10,sure,1.1256125619997874,sr,2,1.5179469230001814,3,"[(3, 0.0004817519998141506), (2, 0.5270295400000578), (2, 1.5189321570001084)]",0.5334532310588049
solo,1,36,3,16,clockwise,clockwise,correct,0.9044518579999021,ac,500,940,10,risky,0.7630917120000049,sr,5,2.274173446000077,1,"[(1, 0.00048680000008971547), (2, 0.3712054289999287), (3, 0.5630067140000392), (4, 0.7550344290002613), (5, 0.91501295199987), (4, 1.5390292480001335), (5, 1.9550994020000871), (5, 2.275001314000292)]",0.49977545853503524
solo,1,37,3,8,anticlockwise,clockwise,wrong,2.714213822000147,ac,500,850,10,sure,1.5246517580003456,rs,3,1.1667944260002514,4,"[(4, 0.0004924319996462145), (3, 0.5276660879999326), (3, 1.1674875849998898)]",0.5980362234701393
solo,1,38,-3,32,anticlockwise,anticlockwise,correct,0.6495271759999923,ac,500,640,0,risky,1.126191136000216,sr,4,1.9996743169999718,5,"[(5, 0.0004891409998890595), (4, 0.4806206050002402), (4, 2.000577006000185)]",0.4379240627276662
solo,1,39,-3,64,clockwise,anticlockwise,wrong,1.1865612719998353,ac,500,1040,0,sure,1.2421950820003076,sr,1,1.5819702329999927,4,"[(4, 0.0004778719999194436), (3, 0.526981343999978), (2, 0.862861859000077), (1, 1.1668830739999976), (1, 1.5828496549997908)]",0.593329223801124
solo,1,40,3,32,anticlockwise,clockwise,wrong,2.0024039390000326,ca,500,590,0,sure,2.233903251999891,sr,3,1.28590456000029,3,"[(3, 0.0005588030003309541), (3, 1.2868730110003526)]",0.5841426416425279
solo,1,41,-3,32,anticlockwise,anticlockwise,correct,1.7420310140000765,ca,500,940,-10,sure,1.0071897389998412,rs,2,0.7339690839999093,2,"[(2, 0.0004818779998458922), (2, 0.7347562619997916)]",0.40600197647924163
solo,1,42,-3,16,anticlockwise,anticlockwise,correct,1.3060704490003445,ca,500,940,-10,risky,0.9887102709999454,rs,4,3.019971646999693,4,"[(4, 0.0004824769998776901), (5, 2.172897834000196), (4, 2.701028865999888), (4, 3.0209445720001895)]",0.41271533791553955
solo,1,43,3,32,clockwise,clockwise,correct,1.643282261999957,ac,500,1040,0,sure,1.7926004920000196,sr,2,2.061885858000096,2,"[(2, 0.0004925840003124904), (3, 1.1510631999999532), (2, 1.5988596270003654), (2, 2.0626028240003507)]",0.48481313101101625
solo,1,44,3,16,clockwise,clockwise,correct,0.8169105220003985,ac,500,590,10,risky,1.078666038999927,sr,4,1.3942435889998706,2,"[(2, 0.00048517800041736336), (3, 0.32327549899991936), (4, 0.5312126449998686), (4, 1.3950644249998732)]",0.5334094454205419
solo,1,45,3,8,clockwise,clockwise,correct,1.2641706939998585,ca,500,770,0,risky,0.9482064260000698,rs,5,1.1882710770000813,4,"[(4, 0.0004829129998142889), (5, 0.6134108330002164), (5, 1.1891386300003433)]",0.5135235333210078
solo,1,46,-3,64,anticlockwise,anticlockwise,correct,1.244687580000118,ca,500,550,10,risky,2.3695326730003217,sr,4,1.1290755699997135,2,"[(2, 0.00048286700030075735), (3, 0.4422587809999641), (4, 0.6339367259997744), (4, 1.130003878000025)]",0.4942389883182165
solo,1,47,3,64,clockwise,clockwise,correct,1.1046230030001425,ca,500,940,-10,risky,0.9713066039998921,rs,4,1.4675527679996776,1,"[(1, 0.00048339099976146827), (2, 0.4285649750004268), (3, 0.6364553680000427), (4, 0.8442964440000651), (4, 1.4683976790001907)]",0.5589623212335832
solo,1,48,-3,8,anticlockwise,anticlockwise,correct,1.8291468279999208,ac,500,940,10,risky,0.7544819689996984,rs,5,0.8907674460001545,3,"[(3, 0.0004842379998990509), (4, 0.33160416300006545), (5, 0.5397617470002842), (5, 0.8917163370001617)]",0.5611268594142929
solo,1,49,3,64,anticlockwise,clockwise,wrong,1.9141591600000538,ca,500,1150,0,risky,1.63639758599993,sr,3,1.5938264500000514,6,"[(6, 0.0004891090002274723), (5, 0.4910997629999656), (4, 0.7631861050003863), (3, 0.9709401840000282), (3, 1.594957202000387)]",0.5281801978588738
solo,1,50,3,8,clockwise,clockwise,correct,0.7878028989998711,ac,500,1270,10,risky,1.0840301600001112,sr,6,1.6226349300000038,2,"[(2, 0.0004963619999216462), (3, 0.39158641700032604), (4, 0.5674201530000573), (5, 0.7753947880000851), (6, 0.9354593660000319), (6, 1.6234629220002716)]",0.4219057383175406
solo,1,51,-3,8,anticlockwise,anticlockwise,correct,1.177630329999829,ca,500,590,-10,risky,0.8492610200000854,rs,6,1.029821111000274,3,"[(3, 0.00047995800014177803), (4, 0.35872032400038734), (5, 0.5346398400001817), (6, 0.7266995820000375), (6, 1.0305877630003124)]",0.5737537608761301
solo,1,52,-3,64,clockwise,anticlockwise,wrong,0.6744287159999658,ac,500,590,-10,risky,0.9107269430000997,sr,5,1.0075604240000757,2,"[(2, 0.0004913139996460814), (3, 0.3049905040002159), (4, 0.48067969600015203), (5, 0.6887158879999333), (5, 1.008645111000078)]",0.5221276370492371
solo,1,53,-3,16,anticlockwise,anticlockwise,correct,1.1805297539999628,ca,500,1150,0,risky,0.8844629409995832,sr,4,1.078112408999914,1,"[(1, 0.0004992359999960172), (2, 0.40735128699998313), (3, 0.5832647719998931), (4, 0.7592184449999877), (4, 1.0792619160001777)]",0.5312244875790291
solo,1,54,3,16,clockwise,clockwise,correct,0.7662016750000475,ac,500,700,-10,risky,1.8139714470003128,rs,4,1.011792296999829,5,"[(5, 0.0005127069998707157), (4, 0.6765484900001866), (4, 1.012593539000136)]",0.5967509746612812
solo,1,55,-3,32,clockwise,anticlockwise,wrong,1.1092046099997788,ac,500,1150,-10,sure,1.2474778020000485,sr,3,1.2835471150001467,5,"[(5, 0.000493675000143412), (4, 0.40436449000026187), (3, 0.5965474250001535), (3, 1.2844663050000236)]",0.4369516179305076
solo,1,56,3,32,clockwise,clockwise,correct,0.8750170769999386,ac,500,1540,-10,risky,0.8633425410002928,rs,4,0.818346130000009,3,"[(3, 0.0004837550000047486), (4, 0.38776886000005106), (4, 0.8193962219997957)]",0.4041365678113133
solo,1,57,-3,16,anticlockwise,anticlockwise,correct,0.7412537249997513,ac,500,1270,0,risky,0.6067146689997571,sr,5,1.0203446450000229,5,"[(5, 0.0004983930002708803), (6, 0.253533193000294), (5, 0.7011677180003062), (5, 1.0212339130002874)]",0.5829266309856391
solo,1,58,3,16,clockwise,clockwise,correct,1.0498357879996547,ca,500,1270,0,risky,1.44663178699966,rs,5,1.4428600480000568,4,"[(4, 0.000497127000016917), (5, 0.6437186869998186), (5, 1.443644368999685)]",0.5287241924478457
solo,1,59,3,64,clockwise,clockwise,correct,0.6530808699999398,ac,500,850,-10,risky,1.145876817000044,rs,4,1.0582464560002336,4,"[(4, 0.00048294899988832185), (4, 1.0593314390002888)]",0.5647586172899242
solo,1,60,-3,8,anticlockwise,anticlockwise,correct,1.0834626089999801,ca,500,1040,0,risky,1.1262583170000653,sr,5,1.615493368999978,1,"[(1, 0.0004891640001005726), (2, 0.46438580799986084), (3, 0.6562353280000934), (4, 0.8322981559999789), (5, 1.0402850219998072), (5, 1.6163709229999768)]",0.5865494985262802
solo,1,61,-3,32,anticlockwise,anticlockwise,correct,0.8845177739999599,ca,500,1040,0,risky,0.8236200769997595,sr,4,1.9969023130001915,3,"[(3, 0.0004941550000694406), (4, 0.47792231699986587), (4, 1.9979868619998342)]",0.5447835721675192
solo,1,62,3,32,anticlockwise,clockwise,wrong,0.9634958910000933,ca,500,550,10,sure,1.2361894399996345,rs,2,2.681520970999827,4,"[(4, 0.0004843460001211497), (3, 0.36239773299985245), (2, 2.346517615999801), (2, 2.6824387749998095)]",0.5061663102969249
solo,1,63,3,8,clockwise,clockwise,correct,0.9978514139997969,ca,500,550,10,risky,0.9479028720002134,rs,6,0.5802011179998772,6,"[(6, 0.0004835750000893313), (6, 0.5811655470001824)]",0.4827097572761809
solo,1,64,-3,64,anticlockwise,anticlockwise,correct,1.0154507150000427,ca,500,700,10,sure,1.0144847360002132,rs,2,1.6357000799998787,1,"[(1, 0.00049473199987915), (2, 1.1245393409999451), (2, 1.6365285000001677)]",0.40844521259918987
solo,1,65,-3,16,anticlockwise,anticlockwise,correct,0.8529651499998181,ca,500,1540,0,risky,0.6654974709999806,rs,4,0.9651151420002861,5,"[(5, 0.0004924350000692357), (4, 0.4861184249998587), (4, 0.9659984760000953)]",0.5975809383845452
solo,1,66,-3,8,anticlockwise,anticlockwise,correct,0.7233291409997946,ac,500,1270,-10,risky,0.9744624349996229,rs,6,1.2937991689996124,2,"[(2, 0.0004935000001751177), (3, 0.4468951819999347), (4, 0.6226343919997817), (5, 0.7986237549998805), (6, 0.9747040990000642), (6, 1.2946124669997516)]",0.540705890570949
solo,1,67,3,64,clockwise,clockwise,correct,0.7877209210000728,ac,500,1540,10,sure,0.890624678000222,rs,1,2.445503371000086,5,"[(5, 0.00048416199979328667), (4, 0.5107532229999379), (3, 0.7187359219997234), (2, 1.5347834760000296), (1, 1.9346358129996588), (1, 1.9826842419997774), (1, 2.4467679189997398)]",0.41869990680813013
solo,1,68,-3,64,clockwise,anticlockwise,wrong,1.1071979130001637,ca,500,1400,10,sure,0.862049350000234,rs,1,1.2339681339999515,3,"[(3, 0.0004964569998264778), (2, 0.5789615170001525), (1, 0.8511147359999995), (1, 1.2349270700001398)]",0.4910242244694589
solo,1,69,3,8,clockwise,clockwise,correct,0.887433666999641,ac,500,590,0,risky,0.9716750160000629,sr,5,1.2914371540000502,1,"[(1, 0.0004948579999108915), (2, 0.3645065330001671), (3, 0.5723678439999276), (4, 0.7323750609998569), (5, 0.9242751580000004), (5, 1.2923268600002302)]",0.4890609012884128
solo,1,70,-3,32,anticlockwise,anticlockwise,correct,0.7031909360002828,ac,500,850,10,risky,1.4018634210001437,rs,4,0.5684817229998771,4,"[(4, 0.0005027070001233369), (4, 0.5692696389996854)]",0.47581051135341046
solo,1,71,3,32,clockwise,clockwise,correct,0.6606068559999585,ac,500,850,10,risky,0.8006269859997701,sr,4,0.8865041539997947,2,"[(2, 0.0004977909998160612), (3, 0.37596850499994616), (4, 0.53593137200005), (4, 0.8876965560002645)]",0.5901798779023304
solo,1,72,3,16,clockwise,clockwise,correct,0.6191910359998474,ac,500,1400,-10,risky,0.6175686330002463,rs,4,0.5819780319998245,4,"[(4, 0.0004954670002916828), (4, 0.5829455000002781)]",0.4784020275836014
solo,1,73,-3,8,anticlockwise,anticlockwise,correct,1.1583904829999483,ca,500,1540,0,risky,0.7670047189999423,sr,5,1.0140893790003247,6,"[(6, 0.0004934849998790014), (6, 0.23114044899966757), (5, 0.5992111880000266), (5, 1.0148717130000477)]",0.49852043733105333
solo,1,74,-3,64,clockwise,anticlockwise,wrong,1.0480424859997584,ac,500,1540,0,sure,0.8685595200004173,sr,2,1.7842204170001423,4,"[(4, 0.00048658100013199146), (3, 0.37688350899998113), (2, 0.9691900490001899), (2, 1.7849630059999981)]",0.41518309936576736
solo,1,75,-3,16,anticlockwise,anticlockwise,correct,0.8532533899997361,ca,500,640,-10,risky,1.0493346059997748,sr,4,1.3020811619999222,1,"[(1, 0.0005006669998692814), (2, 0.3269794540001385), (3, 0.503012538999883), (4, 0.6950491799998417), (4, 1.3028584989997398)]",0.5634929718112633
solo,1,76,3,8,clockwise,clockwise,correct,0.6355524079999668,ac,500,1540,10,risky,0.7286181740000757,sr,6,0.7541867069999171,6,"[(6, 0.0004921710001326574), (6, 0.29112000100030855), (6, 0.7549353140002495)]",0.42950983463405323
solo,1,77,3,64,clockwise,clockwise,correct,0.5887031100000968,ac,500,700,10,sure,1.0206595119998383,rs,3,4.170079782999892,6,"[(6, 0.0005365319998418272), (5, 0.39502972099990075), (4, 0.6190474249997351), (3, 0.826907884999855), (2, 1.1788978469999165), (1, 1.8352357519997895), (2, 3.531196319999708), (3, 3.9469429149999087), (3, 4.1708893059999355)]",0.4394585955108914
solo,1,78,-3,32,anticlockwise,anticlockwise,correct,1.0642101020002883,ca,500,1270,10,sure,1.283782355999847,sr,2,1.3510945309999443,6,"[(6, 0.000553209999907267), (5, 0.4080531270001302), (4, 0.6161111710002842), (3, 0.856023149000066), (2, 1.0960046730001523), (2, 1.3518316860004234)]",0.5758834327772564
solo,1,79,3,32,anticlockwise,clockwise,wrong,1.3014953970000533,ac,500,770,0,sure,1.5281627130002562,rs,2,1.4256009860000631,3,"[(3, 0.0004944810002598388), (2, 0.9304747310002313), (2, 1.4263920030002737)]",0.5528043438795467
solo,1,80,3,16,clockwise,clockwise,correct,0.8926410849999229,ca,500,1150,-10,risky,0.6080894599999738,sr,4,2.3342534630000955,3,"[(3, 0.0004956989996571792), (4, 0.3032036509998761), (5, 0.8313020069999766), (4, 1.9672402770002009), (4, 2.335162927000056)]",0.5514285838494092
solo,1,81,-3,64,anticlockwise,anticlockwise,correct,0.935083590999966,ac,500,1270,0,risky,0.8728789409997262,sr,4,2.988093526999819,5,"[(5, 0.0004882449998149241), (4, 0.42902157399976204), (3, 1.0210416689997146), (4, 2.0773021079999126), (4, 2.9890971810000337)]",0.5218288168782664
solo,1,82,3,8,clockwise,clockwise,correct,1.1159887260000687,ac,500,700,10,risky,0.7895869529997981,rs,6,0.8445242900002086,5,"[(5, 0.00048409100008939276), (6, 0.4614878949996637), (6, 0.845451151999896)]",0.5024339481503372
solo,1,83,3,16,anticlockwise,clockwise,wrong,0.8363823720001164,ac,500,640,-10,sure,0.9861330029998499,rs,3,1.4329153970002153,2,"[(2, 0.0004905830001007416), (3, 0.4740386989997205), (3, 1.4340175079996698)]",0.4168598480106751
solo,1,84,3,32,clockwise,clockwise,correct,0.8845019529999263,ca,500,1150,-10,risky,0.9680676739999399,rs,5,2.0554295940000884,6,"[(6, 0.0004909209997094877), (5, 0.5044925660004083), (4, 1.2083668380000745), (5, 1.6244663760003277), (5, 2.0562864310004443)]",0.5572765770616567
solo,1,85,-3,16,anticlockwise,anticlockwise,correct,1.1020871790001365,ca,500,850,10,risky,0.8405636089996733,sr,5,1.0698697540001376,6,"[(6, 0.000479997999718762), (5, 0.6867896799999471), (5, 1.0706397620001553)]",0.46146510711710664
solo,1,86,-3,32,anticlockwise,anticlockwise,correct,0.6799678389998007,ac,500,770,-10,risky,0.7387371380000332,sr,4,0.6669767760004106,3,"[(3, 0.0005052540000178851), (4, 0.4121442669998032), (4, 0.6677661959997749)]",0.5697909252006692
solo,1,87,3,64,clockwise,clockwise,correct,1.227007059999778,ca,500,1040,0,sure,0.8331000779999158,rs,1,1.460536626999783,5,"[(5, 0.0004983610001545458), (4, 0.4376621780002097), (3, 0.6453378599999269), (2, 0.8536206070002663), (1, 1.141503104000094), (1, 1.4612265640002988)]",0.42454512824101476
solo,1,88,-3,8,anticlockwise,anticlockwise,correct,1.012551578000057,ca,500,700,10,risky,1.0431088139998792,rs,6,1.3910012179999285,5,"[(5, 0.0004944090001117729), (6, 1.0240451150002627), (6, 1.3917889500003184)]",0.4219832168407695
solo,1,89,-3,8,clockwise,anticlockwise,wrong,2.268397479000214,ca,500,640,-10,risky,1.0644785730000876,sr,4,1.1242749430002732,6,"[(6, 0.0005068509999546222), (5, 0.501275233999877), (4, 0.7251712110000881), (4, 1.1250406509998356)]",0.5317756892235465
solo,1,90,3,32,clockwise,clockwise,correct,1.2126892159999443,ca,500,1400,-10,risky,0.7876085269999749,sr,4,0.6342455590001919,4,"[(4, 0.0004895580000265909), (4, 0.6351976599999034)]",0.5200082881386197
solo,1,91,3,16,anticlockwise,clockwise,wrong,1.1447497809999732,ca,500,770,10,sure,1.5847166779999498,sr,3,0.9515472399998544,5,"[(5, 0.0004894089997833362), (4, 0.36059982699998727), (3, 0.5844099339997229), (3, 0.9524077159999251)]",0.48627587870580846
solo,1,92,-3,64,anticlockwise,anticlockwise,correct,1.403498717000275,ca,500,850,10,sure,1.27410946100008,rs,2,1.3576141590001498,6,"[(6, 0.0004685489998337289), (5, 0.4626095830003578), (4, 0.6705223950002619), (3, 0.8624971230001393), (2, 1.070529677000195), (2, 1.3584406260001742)]",0.43252035295967056
solo,1,93,-3,32,clockwise,anticlockwise,wrong,0.971595805999641,ca,500,1540,10,risky,1.1788472250000268,rs,4,0.9941534530003082,5,"[(5, 0.0005017419998694095), (4, 0.6272850569998809), (4, 0.9951011319999452)]",0.57140646616473445
solo,1,94,3,8,clockwise,clockwise,correct,0.8652466000003187,ca,500,1040,10,risky,0.7408518339998409,sr,5,0.7173330179998629,5,"[(5, 0.0004899390000900894), (5, 0.7182474749997709)]",0.503747074238216
solo,1,95,-3,16,anticlockwise,anticlockwise,correct,1.0797907249998389,ac,500,770,0,risky,1.1231781420001425,rs,4,0.6520812160001697,5,"[(5, 0.0005093410004519683), (4, 0.3653843609999967), (4, 0.6532029390000389)]",0.52454925184238
solo,1,96,3,64,anticlockwise,clockwise,wrong,1.6891983380000966,ac,500,640,0,sure,0.749317678999887,rs,2,2.1013464659999954,6,"[(6, 0.0004818120000891213), (5, 0.39033866099998704), (4, 0.6141681409999364), (3, 0.806155249999847), (2, 1.0143276809999406), (1, 1.190202734000195), (2, 1.8462762210001529), (2, 2.102265598000031)]",0.4913220178738852
solo,2,1,3,64,clockwise,clockwise,correct,0.9057562979996874,ca,500,590,10,sure,1.0687782529994365,rs,5,1.944565400999636,4,"[(4, 0.00035472299987304723), (5, 1.5295885590003309), (5, 1.9454632639999545)]",0.5722680130594224
solo,2,2,-3,16,anticlockwise,anticlockwise,correct,0.7550218599999425,ac,500,850,10,risky,2.09144670600017,sr,4,1.5979208610006026,3,"[(3, 0.00047157199969660724), (4, 1.1512851659999797), (4, 1.5992184430006091)]",0.4647991601029846
solo,2,3,3,8,clockwise,clockwise,correct,0.6776901490002274,ac,500,1040,10,risky,0.6089194410005803,rs,4,1.887516002000666,4,"[(4, 0.00048254000012093456), (4, 1.8884176699993986)]",0.48475692217404587
solo,2,4,-3,32,anticlockwise,anticlockwise,correct,0.8767124699998021,ca,500,1400,-10,risky,0.7680429440006264,rs,6,2.679475539000123,2,"[(2, 0.0004852170004596701), (3, 0.7124068080001962), (4, 0.9523306649998631), (5, 1.1604511779996756), (6, 2.2163873370000147), (6, 2.6803914869997243)]",0.45291983900628524
solo,2,5,3,32,clockwise,clockwise,correct,0.5934396319998996,ac,500,770,10,sure,1.8242315140005303,sr,5,1.5498590959996363,2,"[(2, 0.0004727239993371768), (3, 0.6229089290000047), (4, 0.9108077430000776), (5, 1.2148058669999955), (5, 1.550681091000115)]",0.5503071165517505
solo,2,6,3,16,clockwise,clockwise,correct,0.8837210809997487,ca,500,550,-10,sure,1.0478641259996948,rs,5,3.0751847669998824,4,"[(4, 0.0005025870004828903), (5, 2.260177670000303), (5, 3.0760243380000247)]",0.5737551213000202
solo,2,7,-3,8,anticlockwise,anticlockwise,correct,0.8990517120000732,ca,500,640,10,sure,1.2226644820002548,sr,2,1.115577814000062,3,"[(3, 0.0005066780004199245), (2, 0.6525956400000723), (2, 1.116345251999519)]",0.4111843177675355
solo,2,8,-3,64,anticlockwise,anticlockwise,correct,1.079949482000302,ac,500,1150,-10,risky,1.7469336409994867,rs,3,2.06669453700124,2,"[(2, 0.0004885119997197762), (3, 1.4277536499994312), (3, 2.0675920369994856)]",0.4530365097506961
solo,2,9,-3,32,anticlockwise,anticlockwise,correct,0.839535633000196,ca,500,1150,10,risky,0.9570765399985248,rs,2,2.2046281219991215,4,"[(4, 0.0004850000004807953), (3, 0.5576223010011745), (2, 1.7895272030000342), (2, 2.2054814920011268)]",0.5068340594338568
solo,2,10,-3,64,anticlockwise,anticlockwise,correct,1.0712537680010428,ca,500,1040,0,sure,1.291043721999813,sr,1,1.4384223270008079,3,"[(3, 0.0005019079999328824), (2, 0.9113844530002098), (1, 1.1192444469998009), (1, 1.4393151299991587)]",0.42327458407071933
solo,2,11,-3,16,anticlockwise,anticlockwise,correct,0.8097242250005365,ac,500,700,-10,sure,1.0076824799998576,sr,3,1.8217986220006424,5,"[(5, 0.00047797099978197366), (4, 0.5268526229992858), (3, 1.262744636998832), (3, 1.8225808249990223)]",0.5508182455514579
solo,2,12,3,64,anticlockwise,clockwise,wrong,1.2741122890001861,ac,500,1400,10,risky,1.1658298000002105,sr,2,1.4611893760011299,2,"[(2, 0.0004803259998880094), (1, 0.27825642800053174), (2, 1.0780367300012585), (2, 1.4620699510014674)]",0.5509309731612957
solo,2,13,-3,8,anticlockwise,anticlockwise,correct,0.8356657120002637,ca,500,700,-10,risky,1.9777780469994468,sr,5,0.9436983189989405,4,"[(4, 0.0004736849987239111), (5, 0.640409310000905), (5, 0.9443365060014912)]",0.46070717489115326
solo,2,14,3,16,anticlockwise,clockwise,wrong,0.7019061840001086,ca,500,850,10,sure,1.6883319040007336,rs,3,0.698816412999804,3,"[(3, 0.0005087779991299612), (3, 0.6998674710011983)]",0.5852642856363073
solo,2,15,3,32,clockwise,clockwise,correct,0.6460045100011484,ca,500,1540,0,risky,1.282775228999526,rs,5,1.3496667770014028,6,"[(6, 0.0004932909996568924), (5, 0.9347629879994201), (5, 1.350541253999836)]",0.49990407902092915
solo,2,16,3,8,clockwise,clockwise,correct,0.7285307830006786,ca,500,1400,-10,risky,0.6749892999996518,sr,6,1.1343127959989943,4,"[(4, 0.0004891659991699271), (5, 0.7032161160004762), (6, 0.9271011889995862), (6, 1.1350042369995208)]",0.43717739209411755
solo,2,17,3,32,anticlockwise,clockwise,wrong,1.8300346240012004,ac,500,1150,0,sure,1.0755241249989922,rs,1,1.214134155001375,5,"[(5, 0.0004854380003962433), (4, 0.33504806800010556), (3, 0.5588788940003724), (2, 0.7669176550007251), (1, 0.9911379780005518), (1, 1.2149896930004616)]",0.5398041247954044
solo,2,18,-3,64,clockwise,anticlockwise,wrong,2.1354492800001026,ca,500,550,0,sure,1.0339188479993027,rs,2,0.742495038000925,2,"[(2, 0.000489546000608243), (2, 0.7434423999984574)]",0.42182794833532783
solo,2,19,-3,32,anticlockwise,anticlockwise,correct,1.0681933260002552,ac,500,940,-10,sure,0.9521891280001,rs,3,1.5277489130003232,6,"[(6, 0.0004790500006492948), (5, 0.6327726180006721), (4, 0.8726935720005713), (3, 1.09656264700061), (3, 1.528786269000193)]",0.5826814239654747
solo,2,20,-3,8,anticlockwise,anticlockwise,correct,0.8616782469998725,ac,500,1400,10,risky,0.8181991950004885,rs,4,1.0635247150003124,5,"[(5, 0.00048279800103046), (4, 0.6165111600003002), (4, 1.064538006001385)]",0.59738973897201475
solo,2,21,3,64,clockwise,clockwise,correct,1.1090578179992008,ac,500,640,-10,sure,0.9118655420006689,rs,2,1.2006319470001472,5,"[(5, 0.0005037490009272005), (4, 0.27351150100002997), (3, 0.5454558900000848), (2, 0.7694293839995225), (2, 1.2015533360008703)]",0.473306792564278
solo,2,22,-3,16,anticlockwise,anticlockwise,correct,0.8064332169997215,ca,500,770,0,sure,1.0859222559993214,rs,2,1.6083177990003605,6,"[(6, 0.00047704100143164396), (5, 0.45734987300056673), (4, 0.7771934600004897), (3, 1.0332197110001289), (2, 1.3052889009995852), (2, 1.6092820239991852)]",0.5396305373906983
solo,2,23,3,8,clockwise,clockwise,correct,0.6381090529994253,ca,500,700,-10,risky,1.4354932900005224,rs,5,1.9764002240008267,2,"[(2, 0.0004782659998454619), (3, 0.425401566999426), (4, 0.6813626719995227), (5, 0.8894065969998337), (5, 1.977255965999575)]",0.5011391646585078
solo,2,24,3,16,clockwise,clockwise,correct,0.7840684570001031,ac,500,770,-10,risky,1.143001981999987,sr,6,0.6869141499992111,5,"[(5, 0.0004722320009022951), (6, 0.3680380490004609), (6, 0.6877942409992102)]",0.5232300103426782
solo,2,25,-3,64,anticlockwise,anticlockwise,correct,1.0830292320006265,ca,500,850,10,sure,0.7739971930004685,rs,1,1.3258313970000017,5,"[(5, 0.00048195800081884954), (4, 0.5268887069996708), (3, 0.7668569380002737), (2, 0.9586935480001557), (1, 1.1187493329998688), (1, 1.3268268749998242)]",0.5053164898512469
solo,2,26,3,32,clockwise,clockwise,correct,0.652275271999315,ac,500,1040,0,sure,2.6323001390010177,rs,1,2.2449233759998606,5,"[(5, 0.0004898579991277074), (4, 1.349781756000084), (3, 1.5739099090005766), (2, 1.7978345450010238), (1, 1.9898212580010295), (1, 2.246888019000835)]",0.5796174070242337
solo,2,27,-3,8,anticlockwise,anticlockwise,correct,0.6428309590010031,ac,500,850,0,risky,0.8960926130002917,sr,6,1.6026742169997306,2,"[(2, 0.0004827370012208121), (3, 0.32366868399913074), (4, 0.5795819119994121), (5, 0.8034141259995522), (6, 1.427666114999738), (6, 1.6033065879983042)]",0.4865336171843754
solo,2,28,-3,32,clockwise,anticlockwise,wrong,0.7963739980004902,ca,500,770,10,sure,0.835082195000723,rs,2,0.6800869520011474,3,"[(3, 0.0004855560000578407), (2, 0.23307536900028936), (2, 0.6810044049998396)]",0.42945212347532524
solo,2,29,3,64,anticlockwise,clockwise,wrong,1.2369224459998804,ac,500,1040,-10,sure,0.8742650649983261,sr,1,1.6138248079987534,6,"[(6, 0.0004941389997838996), (5, 0.36686088200076483), (4, 0.5747529230011423), (3, 0.798802950001118), (2, 1.1346248490008293), (1, 1.3746411580013955), (1, 1.6145081240010768)]",0.4949181990026521
solo,2,30,3,16,clockwise,clockwise,correct,0.6748001060004754,ac,500,940,0,sure,0.7830487930004892,rs,1,0.8379996860003303,4,"[(4, 0.000503829998706351), (3, 0.11901639200004865), (2, 0.3429106610001327), (1, 0.55088057499961), (1, 0.8388106000002153)]",0.5128435169566309
solo,2,31,-3,16,anticlockwise,anticlockwise,correct,0.6821535529998073,ac,500,1540,0,sure,0.7900190370000928,rs,1,0.700468330998774,4,"[(4, 0.0005078129997855285), (3, 0.09352097800001502), (2, 0.3014334969993797), (1, 0.4773169529998995), (1, 0.7012304260006204)]",0.5375603258740385
solo,2,32,3,8,clockwise,clockwise,correct,0.6639933599999495,ac,500,1150,-10,risky,0.5804560390006372,rs,5,0.9156463199997233,3,"[(3, 0.000483754000015324), (4, 0.46889526399900205), (5, 0.7244950759995845), (5, 0.9163966039996012)]",0.464563345137192
solo,2,33,3,32,clockwise,clockwise,correct,0.8182278679996671,ca,500,850,0,sure,0.9035729259994696,sr,2,1.786505144998955,6,"[(6, 0.00047408700083906297), (5, 0.4756080909992306), (4, 0.699531049000143), (3, 0.8755420920006145), (2, 1.3232932760001859), (2, 1.7874305990007997)]",0.5852527727417913
solo,2,34,-3,32,anticlockwise,anticlockwise,correct,0.988592305999191,ca,500,850,10,sure,0.6373837920000369,rs,2,1.5775950889983505,6,"[(6, 0.0005146469993633218), (5, 0.13819297900045058), (4, 0.41041851500085613), (3, 0.618409929000336), (2, 1.3064861110015045), (2, 1.5783119650004664)]",0.4251166604193526
solo,2,35,3,64,clockwise,clockwise,correct,0.7659663089998503,ac,500,850,10,sure,1.1894388140008232,sr,2,1.0687520440005756,3,"[(3, 0.00047755100058566313), (2, 0.7338490880010795), (2, 1.069646179999836)]",0.5870712280215112
solo,2,36,-3,64,anticlockwise,anticlockwise,correct,1.430597835998924,ca,500,770,0,sure,0.5964688109997951,rs,1,0.7869043959999544,3,"[(3, 0.0004945509990648134), (2, 0.22790696800075239), (1, 0.4677798749999056), (1, 0.7877757040005235)]",0.5546847670751338
solo,2,37,-3,8,anticlockwise,anticlockwise,correct,0.6200569680004264,ac,500,550,-10,sure,1.8184025360005762,rs,5,1.4159292950007512,3,"[(3, 0.0004803789997822605), (4, 0.9370228730003873), (5, 1.2090126820003206), (5, 1.416856101999656)]",0.4404944701776413
solo,2,38,-3,16,anticlockwise,anticlockwise,correct,0.6799611910009844,ac,500,590,0,risky,2.3711748290006653,sr,6,1.4038791729999502,2,"[(2, 0.00047601799997210037), (3, 0.5408448180005507), (4, 0.7809954639997159), (5, 1.0047725620006531), (6, 1.2286048360001587), (6, 1.4047034470004292)]",0.45101877095829307
solo,2,39,3,8,clockwise,clockwise,correct,0.6322742410011415,ca,500,770,10,risky,0.6301845689995389,rs,5,1.3789883949993964,1,"[(1, 0.0005183020002732519), (2, 0.37211645299976226), (3, 0.5960848899994744), (4, 0.8038374739990104), (5, 1.155984177999926), (5, 1.3798738719997345)]",0.5301571056002835
solo,2,40,3,16,clockwise,clockwise,correct,0.6083838920003473,ac,500,1400,10,risky,0.5594156280003517,rs,5,1.0226791989989579,6,"[(6, 0.0004784210013895063), (5, 0.6077236309993168), (5, 1.023656054998355)]",0.5616679434835092
solo,2,41,-3,64,clockwise,anticlockwise,wrong,0.7355869760012865,ca,500,640,10,sure,0.7604421769992769,rs,1,1.8561096960002033,1,"[(1, 0.0004811710005014902), (1, 1.8568766369990044)]",0.4410561319075093
solo,2,42,-3,16,clockwise,anticlockwise,wrong,0.8606806789994152,ac,500,1150,10,sure,0.9287822219994268,sr,1,0.8817115069996362,3,"[(3, 0.00048319599954993464), (2, 0.27481823599919153), (1, 0.5148020880005788), (1, 0.8825952770002914)]",0.5253227589971282
solo,2,43,3,8,clockwise,clockwise,correct,0.6279462009988492,ac,500,640,0,sure,0.8335752499988303,sr,1,0.7906549399995129,2,"[(2, 0.000496659000418731), (1, 0.26355162400068366), (1, 0.791557587999705)]",0.524249145561358
solo,2,44,3,32,clockwise,clockwise,correct,0.9128005870006746,ca,500,1270,10,risky,0.8349048540003423,sr,2,1.479377483999997,5,"[(5, 0.0005077030000393279), (4, 0.36025822699957644), (3, 0.5683369250000396), (2, 1.1282995719993778), (2, 1.4802132799995888)]",0.4144760108789082
solo,2,45,3,16,clockwise,clockwise,correct,0.5769712870005606,ac,500,640,10,sure,1.1047220669988747,sr,4,0.9705982730010874,2,"[(2, 0.0005292810001265025), (3, 0.5236371560004045), (4, 0.7633911419998185), (4, 0.9715509239995299)]",0.5520603291296573
solo,2,46,3,64,anticlockwise,clockwise,wrong,0.9046142939987476,ca,500,550,-10,sure,0.8747630950001621,sr,2,1.7265577599991957,1,"[(1, 0.0005095939995953813), (2, 1.0394636430009996), (2, 1.7274160280012438)]",0.5636831923058463
solo,2,47,-3,8,anticlockwise,anticlockwise,correct,0.6584098779985652,ac,500,590,0,sure,0.9269408830004977,sr,3,1.0716818639994017,3,"[(3, 0.0004905099995085038), (3, 1.072667704000196)]",0.4588733285681391
solo,2,48,-3,32,anticlockwise,anticlockwise,correct,0.8152077839986305,ca,500,550,0,sure,0.8533263169993006,rs,3,0.7936479629988753,2,"[(2, 0.0004748920000565704), (3, 0.49080548399979307), (3, 0.7943051589991228)]",0.418280282598212
solo,2,49,3,16,clockwise,clockwise,correct,1.9161776159999135,ca,500,1150,-10,sure,1.0474695460015937,rs,2,0.7867963230000896,3,"[(3, 0.0005241799990471918), (2, 0.35579278499972133), (2, 0.7876483449999796)]",0.5234128081912964
solo,2,50,-3,32,anticlockwise,anticlockwise,correct,0.8098600450011872,ca,500,1270,-10,sure,0.6569241359993612,rs,1,1.4687584410003183,6,"[(6, 0.000486289000036777), (5, 0.46164825499909057), (4, 0.685557846998563), (3, 0.8774998909993883), (2, 1.0854673180001555), (1, 1.2774144989998604), (1, 1.4694911970000248)]",0.5212661774646614
solo,2,51,-3,8,anticlockwise,anticlockwise,correct,0.6325607230010064,ac,500,1040,-10,risky,0.9016965219998383,sr,5,1.5283928200005903,6,"[(6, 0.0004947090001223842), (5, 0.5532677800001693), (5, 1.5292405290001625)]",0.5064887179265837
solo,2,52,3,8,clockwise,clockwise,correct,0.6714961069992569,ca,500,850,-10,risky,1.0522895649992279,rs,6,2.1843907599995873,1,"[(1, 0.00047407700003532227), (2, 0.6651772100012749), (3, 0.9212125909998576), (4, 1.1772555110001122), (5, 1.4011747620006645), (6, 1.9452630450014112), (6, 2.185114922000139)]",0.5498227595100531
solo,2,53,-3,64,clockwise,anticlockwise,wrong,0.933655032000388,ac,500,1270,0,sure,0.807556742000088,rs,1,1.1659850560008636,2,"[(2, 0.0005008090010960586), (1, 0.15919735600073182), (1, 1.1668645000008837)]",0.5500172493200562
solo,2,54,3,32,clockwise,clockwise,correct,0.5776648910014046,ac,500,590,0,sure,0.7529137050005374,sr,2,2.217225274000157,1,"[(1, 0.000490237998747034), (2, 1.7381959029989957), (2, 2.2179786729993793)]",0.5989328966039953
solo,2,55,3,64,clockwise,clockwise,correct,1.0309879699998419,ca,500,700,-10,sure,0.7565655460002745,rs,1,0.5399462770001264,1,"[(1, 0.0004906059984932654), (1, 0.540884301000915)]",0.5179019630245182
solo,2,56,-3,16,anticlockwise,anticlockwise,correct,0.6848312769998302,ac,500,940,-10,risky,0.6809088179998071,rs,5,1.762518925999757,2,"[(2, 0.0004905899986624718), (3, 0.35550081999826944), (4, 0.5634873179988062), (5, 1.4434478049988684), (5, 1.763335391999135)]",0.5273897194185049
solo,2,57,3,32,anticlockwise,clockwise,wrong,0.753052062000279,ac,500,640,0,sure,0.6488347110007453,rs,1,1.3011609059994953,1,"[(1, 0.0005073290012660436), (1, 1.302065540001422)]",0.5702079325398985
solo,2,58,-3,16,anticlockwise,anticlockwise,correct,0.7594920179999463,ac,500,1400,0,risky,0.5435333240002365,rs,4,1.3435212610002054,6,"[(6, 0.0005077090008853702), (5, 0.5444957100007741), (4, 1.104595810000319), (4, 1.3443283470005554)]",0.5228224704198703
solo,2,59,3,8,clockwise,clockwise,correct,0.6403727289998642,ac,500,1540,0,risky,1.3582878690012876,sr,4,0.9582152669991046,2,"[(2, 0.0005290310000418685), (3, 0.49514452000039455), (4, 0.7512481079993449), (4, 0.9588702210003248)]",0.524524201156143
solo,2,60,-3,64,clockwise,anticlockwise,wrong,1.260664988998542,ac,500,940,-10,sure,0.7676312389994564,rs,3,0.8079408920002606,3,"[(3, 0.0004983569997421), (3, 0.8087320300001011)]",0.578350356238089
solo,2,61,3,16,clockwise,clockwise,correct,1.004737278999528,ac,500,1040,10,risky,0.8922804649992031,sr,5,1.8545965449993673,1,"[(1, 0.0005029329986427911), (2, 0.6876463789994887), (3, 0.9115128829998866), (4, 1.1513249339986942), (5, 1.6474488099993323), (5, 1.8554453699998703)]",0.5193436734179818
solo,2,62,-3,8,anticlockwise,anticlockwise,correct,0.638042561000475,ac,500,1270,-10,risky,0.8435973020004894,sr,6,2.174739708998459,4,"[(4, 0.0005042579996370478), (5, 0.31984645900047326), (6, 2.015501821999351), (6, 2.1755636620000587)]",0.4563173949117025
solo,2,63,3,64,anticlockwise,clockwise,wrong,0.9739671360002831,ca,500,1540,0,sure,0.7981198760007828,rs,1,0.8998467410001467,3,"[(3, 0.0005086399996798718), (2, 0.22887804699894332), (1, 0.6448003329987841), (1, 0.9007521290004661)]",0.5343037843711045
solo,2,64,-3,32,anticlockwise,anticlockwise,correct,0.5652079659994342,ac,500,590,-10,sure,1.0764006940007675,rs,3,0.7833804879992385,5,"[(5, 0.000508499000716256), (4, 0.3680228859993804), (3, 0.5920325689985475), (3, 0.7839891089988669)]",0.5451701937376066
solo,2,65,3,8,clockwise,clockwise,correct,0.676402152999799,ac,500,550,-10,sure,1.8715338229994813,sr,5,0.8907148390007933,3,"[(3, 0.0005070809984317748), (4, 0.4435813180007244), (5, 0.6997179700010747), (5, 0.8913841920002596)]",0.5677379787730641
solo,2,66,-3,16,anticlockwise,anticlockwise,correct,1.038131331999466,ca,500,550,-10,sure,0.9707855669985292,rs,4,1.8506359739985783,6,"[(6, 0.0005233010015217587), (5, 0.3954981949991634), (4, 1.6116148439996323), (4, 1.8513499049986422)]",0.514358685448941
solo,2,67,-3,32,anticlockwise,anticlockwise,correct,0.7603413720007666,ac,500,700,10,sure,0.913042583000788,rs,3,0.6737155149985483,4,"[(4, 0.0005157939995115157), (3, 0.46656576999885147), (3, 0.6744222479992459)]",0.4639490781631045
solo,2,68,3,32,anticlockwise,clockwise,wrong,0.796643089999634,ca,500,940,10,risky,0.86787625100078,rs,4,0.8549228339998081,4,"[(4, 0.0004864129987254273), (4, 0.8557781510007771)]",0.5426945120935475
solo,2,69,-3,8,anticlockwise,anticlockwise,correct,0.7956023980004829,ca,500,770,10,risky,1.3473202610002772,sr,4,1.0271394030005467,5,"[(5, 0.0004911979995085858), (4, 0.6441395709989592), (4, 1.02805365399945)]",0.5056606027756
solo,2,70,3,64,clockwise,clockwise,correct,0.6560338960007357,ca,500,1270,10,sure,0.5579577309999877,rs,1,0.7971146290001343,4,"[(4, 0.0005239540005277377), (3, 0.14196496200020192), (2, 0.3499471890008863), (1, 0.5420519409999542), (1, 0.7978192620012123)]",0.5015195070063212
solo,2,71,3,16,clockwise,clockwise,correct,0.8970768719991611,ac,500,1540,-10,risky,0.9153746179999871,sr,3,1.157502617999853,1,"[(1, 0.0005258059991319897), (2, 0.45427996100079326), (3, 0.8065709560014511), (3, 1.1584844590015564)]",0.5932353707348047
solo,2,72,-3,64,anticlockwise,anticlockwise,correct,1.2251470619994507,ca,500,700,-10,sure,0.6231885839988536,rs,1,0.8446788109995396,4,"[(4, 0.0005168200004845858), (3, 0.23750035600096453), (2, 0.46159116700073355), (1, 0.6695662649999576), (1, 0.845556674999898)]",0.5966762690412235
solo,2,73,-3,8,anticlockwise,anticlockwise,correct,0.8157084019985632,ca,500,1540,0,risky,0.8372579810002208,sr,5,0.7459934600010456,4,"[(4, 0.0005661029990733368), (5, 0.47488458700172487), (5, 0.7466745609999634)]",0.5495750749208304
solo,2,74,-3,32,clockwise,anticlockwise,wrong,0.5936665320004977,ac,500,640,10,sure,1.2012072109992005,sr,4,1.2549750760008465,2,"[(2, 0.0005164390004210873), (3, 0.839764677999483), (4, 1.0958522459986852), (4, 1.2558638739992602)]",0.5174011330434184
solo,2,75,3,8,clockwise,clockwise,correct,0.8241502239998226,ca,500,940,10,risky,0.862109538000368,sr,5,1.185639037999863,2,"[(2, 0.0005099520003568614), (3, 0.4024661980001838), (4, 0.6585707960002765), (5, 1.0265583009986585), (5, 1.186348299999736)]",0.5984507630916241
solo,2,76,-3,16,anticlockwise,anticlockwise,correct,0.6043420070000138,ac,500,640,0,sure,0.9386805799986178,sr,3,0.8436351590007689,6,"[(6, 0.0004692610000347486), (5, 0.25269845299953886), (4, 0.46064382399890746), (3, 0.6526367490005214), (3, 0.8443982409989985)]",0.4360425631276924
solo,2,77,-3,64,anticlockwise,anticlockwise,correct,0.6205889360007859,ac,500,590,10,sure,0.6838494880012149,sr,1,0.742147800998282,4,"[(4, 0.000526763000380015), (3, 0.11893310900086362), (2, 0.3268979490003403), (1, 0.5189377210008388), (1, 0.742906266999853)]",0.5827094929873312
solo,2,78,3,32,clockwise,clockwise,correct,0.6394520800004102,ca,500,700,0,sure,0.7326010920005501,rs,3,1.10993659199994,4,"[(4, 0.0005193829983909382), (3, 0.6950109419994988), (3, 1.1107200299993565)]",0.48371314181976294
solo,2,79,3,64,clockwise,clockwise,correct,0.8835225820002961,ca,500,770,10,sure,0.695608545000141,sr,1,0.6570502290014701,2,"[(2, 0.000494981000883854), (1, 0.3217510239992407), (1, 0.6578747990006377)]",0.4010057861871182
solo,2,80,3,16,clockwise,clockwise,correct,0.7784971630007931,ca,500,1270,10,risky,0.8171196680013963,rs,4,0.5826365079992684,4,"[(4, 0.0005184389992791694), (4, 0.5833934459988086)]",0.5945098463556682
solo,2,81,-3,32,anticlockwise,anticlockwise,correct,0.681437437000568,ac,500,1540,0,risky,1.045068977999108,rs,4,1.2323246250016382,1,"[(1, 0.0005021239994675852), (2, 0.5132048269988445), (3, 0.769253876998846), (4, 1.0093045029989298), (4, 1.2331807440004923)]",0.4358489229066662
solo,2,82,3,16,clockwise,clockwise,correct,0.7615069879993825,ac,500,590,-10,sure,1.1365899730008096,sr,4,0.9861840270004905,5,"[(5, 0.0004953229999955511), (4, 0.6353193459999602), (4, 0.9869650769996952)]",0.43735500905660263
solo,2,83,-3,8,anticlockwise,anticlockwise,correct,0.8288096809992567,ca,500,1150,10,risky,0.7539086249998945,sr,4,2.65046608800003,6,"[(6, 0.0004929300012008753), (5, 0.42739656699995976), (4, 1.2592229599995335), (5, 2.1233877599988773), (4, 2.491268712999954), (4, 2.65122893699845)]",0.42106891558125087
solo,2,84,-3,16,anticlockwise,anticlockwise,correct,0.7077290910001466,ac,500,1270,-10,risky,0.6703341450011067,rs,5,1.5137214070000482,2,"[(2, 0.0005885210011911113), (3, 0.4746243620011228), (4, 0.7307105880008748), (5, 1.018722284001342), (5, 1.5146282920013618)]",0.5826394620410543
solo,2,85,3,32,anticlockwise,clockwise,wrong,0.8395086170003196,ca,500,1400,-10,sure,0.6364377640002203,rs,1,1.1767874130000564,6,"[(6, 0.0004935830002068542), (5, 0.16984290599975793), (4, 0.40972031599994807), (3, 0.6176008269994782), (2, 0.8256657889996859), (1, 1.0177503649993014), (1, 1.1775961309995182)]",0.43151799670433555
solo,2,86,3,8,clockwise,clockwise,correct,1.181854899999962,ac,500,590,10,sure,1.7975727420016483,sr,5,1.3954497180002363,1,"[(1, 0.0005917939997743815), (2, 0.5005565510000451), (3, 0.7722451929985255), (4, 1.0124603259992), (5, 1.221704002999104), (5, 1.3963307199992414)]",0.5747052332438903
solo,2,87,3,64,clockwise,clockwise,correct,0.7044978440007981,ca,500,940,0,risky,0.6986929890008469,rs,5,0.9805951069993171,5,"[(5, 0.0005332769997039577), (6, 0.2615545610005938), (5, 0.5335953529993276), (5, 0.9813664630000858)]",0.5745009416725761
solo,2,88,-3,64,clockwise,anticlockwise,wrong,0.7708428320001985,ca,500,1540,-10,sure,0.9885491530003492,sr,1,0.5705171660010819,1,"[(1, 0.0005083859996375395), (1, 0.18746987100166734), (1, 0.5713525380015199)]",0.5271494535868854
solo,2,89,3,16,clockwise,clockwise,correct,1.4681549360011559,ac,500,700,-10,sure,0.7287504219984839,sr,2,0.7698429240008409,4,"[(4, 0.0004925880002701888), (3, 0.3389155459990434), (2, 0.5466125759994611), (2, 0.7705389499988087)]",0.4527632796487894
solo,2,90,-3,8,anticlockwise,anticlockwise,correct,0.8552452989988524,ca,500,940,0,sure,0.8926334629995836,sr,1,1.6948458080005366,6,"[(6, 0.0005121899994264822), (5, 0.3197609590006323), (4, 0.5596366890003992), (3, 0.7356879649996699), (2, 0.9115825450007833), (1, 1.5037458330007212), (1, 1.695590285000435)]",0.5542612901941246
solo,2,91,3,64,clockwise,clockwise,correct,0.7980131459989934,ca,500,1150,-10,risky,1.1084915909996198,sr,4,0.8944867959999101,3,"[(3, 0.000826863999463967), (4, 0.4311900880002213), (4, 0.8953171600005589)]",0.5865456395480791
solo,2,92,-3,32,clockwise,anticlockwise,wrong,0.7368695290006144,ca,500,1040,0,sure,1.1307610989988461,sr,2,1.2199691419991723,6,"[(6, 0.0005054129997006385), (5, 0.3570175309996557), (4, 0.5647004620004736), (3, 0.7887428009998985), (2, 0.9809247979992506), (2, 1.2206670309988112)]",0.49900414361593964
solo,2,93,-3,16,anticlockwise,anticlockwise,correct,0.9037622939995344,ca,500,1040,10,risky,0.7471662179996201,rs,4,0.6749540430009802,4,"[(4, 0.0004970379995938856), (4, 0.6757741600013105)]",0.5404374954803987
solo,2,94,3,32,clockwise,clockwise,correct,0.7340330560000439,ca,500,550,0,sure,1.606669538999995,sr,5,1.0698456539994368,2,"[(2, 0.0004888940002274467), (3, 0.43066320100115263), (4, 0.7027040909997595), (5, 0.910839551999743), (5, 1.0705697949997557)]",0.5275709144233812
solo,2,95,-3,64,clockwise,anticlockwise,wrong,1.046709287998965,ac,500,1400,-10,sure,0.8516387170002417,sr,1,2.503399195999009,6,"[(6, 0.0004795949989784276), (5, 0.3442254129986395), (4, 0.552443875998506), (3, 0.7443529979991581), (2, 0.9042579289998685), (1, 1.0641354489998776), (2, 1.7525148169988825), (1, 2.29621783499897), (1, 2.504143860000113)]",0.5648566416432907
solo,2,96,3,8,clockwise,clockwise,correct,0.6700566119998257,ac,500,1270,0,risky,0.6175551380001707,rs,6,0.5510392729993328,6,"[(6, 0.0004912340009468608), (6, 0.5518029600007139)]",0.4320165945929247
solo,3,1,3,32,clockwise,clockwise,correct,1.372612745000879,ac,500,1540,0,risky,1.2610519069985457,sr,4,2.2562068890001683,4,"[(4, 0.0003639820006355876), (4, 2.257087653000781)]",0.5059656558628582
solo,3,2,3,16,clockwise,clockwise,correct,0.8913624399992841,ac,500,940,10,risky,1.6467718290004996,sr,4,4.450292393999916,6,"[(6, 0.0004915009994874708), (5, 3.347285546000421), (4, 4.051378927999394), (4, 4.451107889999548)]",0.5503263052720128
solo,3,3,-3,16,anticlockwise,anticlockwise,correct,1.6423906999989413,ca,500,1040,0,risky,1.311292569998841,rs,3,4.912838734000616,4,"[(4, 0.0004695190000347793), (3, 4.609881480000695), (3, 4.91378588400039)]",0.4388950793171556
solo,3,4,-3,8,clockwise,anticlockwise,wrong,1.1399866369993106,ac,500,770,0,sure,1.6293509079987416,sr,1,2.578660885001227,4,"[(4, 0.0004974299990863074), (3, 1.619630227000016), (2, 1.8917392240000481), (1, 2.2275778409984923), (1, 2.5794454619990574)]",0.48979204586201514
solo,3,5,3,64,clockwise,clockwise,correct,0.6899429650002276,ac,500,700,0,sure,3.3734689180000714,rs,3,0.9578163360001781,3,"[(3, 0.0004883279998466605), (3, 0.9586090540014993)]",0.49634047722276553
solo,3,6,3,8,clockwise,clockwise,correct,0.9904565199994977,ca,500,770,10,risky,1.918343608998839,rs,5,2.055704471000354,4,"[(4, 0.0005029140011174604), (5, 1.78456681300122), (5, 2.056471010000678)]",0.480385694978868
solo,3,7,-3,32,anticlockwise,anticlockwise,correct,0.8607329740007117,ca,500,550,10,sure,1.4892854609988717,sr,1,1.2757779439998558,2,"[(2, 0.0005060069997853134), (1, 0.9725454719991831), (1, 1.2765712739983428)]",0.5030056269588407
solo,3,8,-3,64,clockwise,anticlockwise,wrong,1.4036536050007271,ac,500,550,-10,sure,1.5151279970014002,sr,1,1.6034378000003926,3,"[(3, 0.0005108090008434374), (2, 1.1245781389989133), (1, 1.3484854029993585), (1, 1.6042454529997485)]",0.5889828618973614
solo,3,9,-3,64,anticlockwise,anticlockwise,correct,0.8596519000002445,ac,500,1400,-10,sure,2.11214186899997,rs,1,2.625365604999388,5,"[(5, 0.0005020850003347732), (4, 1.6661986150011217), (3, 1.922273092000978), (2, 2.2421871810001903), (1, 2.402238677999776), (1, 2.6262598610010173)]",0.50925300546627
solo,3,10,3,32,anticlockwise,clockwise,wrong,0.8506472369990661,ac,500,850,-10,risky,1.896467742999448,sr,4,1.9699220379989129,4,"[(4, 0.0004941669994877884), (4, 1.970717872000023)]",0.406299886045697
solo,3,11,-3,32,clockwise,anticlockwise,wrong,1.2124970889999531,ca,500,640,-10,sure,1.329828706000626,rs,2,1.7468548849992658,1,"[(1, 0.0004928750004182803), (2, 1.5078931600000942), (2, 1.7476526270002068)]",0.47521232210004766
solo,3,12,-3,16,anticlockwise,anticlockwise,correct,1.025670416000139,ca,500,640,-10,risky,2.0162798229994223,rs,5,1.1258550900001865,5,"[(5, 0.000515495999934501), (5, 1.1267048199988494)]",0.548277354330838
solo,3,13,-3,8,anticlockwise,anticlockwise,correct,0.9727304959997127,ca,500,940,-10,risky,2.2526001240003097,rs,3,2.0409837480001443,2,"[(2, 0.0005268649983918294), (3, 1.785906981998778), (3, 2.041817256000286)]",0.5538685493551172
solo,3,14,3,8,clockwise,clockwise,correct,0.8003313379995234,ac,500,1270,-10,risky,0.9996423520005919,rs,5,1.9407666019997123,6,"[(6, 0.0004831770002056146), (5, 1.6378023449997272), (5, 1.941645762999542)]",0.4739663395648438
solo,3,15,3,16,clockwise,clockwise,correct,0.9434959559985145,ac,500,1400,10,risky,2.000093435000963,sr,4,1.9425471959984861,6,"[(6, 0.0005192629996599862), (5, 1.3674895559997822), (4, 1.60749459300132), (4, 1.9435203709999769)]",0.4695631930783951
solo,3,16,3,64,clockwise,clockwise,correct,0.6524701620000997,ca,500,640,0,sure,1.4966490610004257,sr,1,1.2021917929996562,1,"[(1, 0.0004916149991913699), (1, 1.2034611070012033)]",0.5836027829491528
solo,3,17,3,64,anticlockwise,clockwise,wrong,0.6971188160005113,ac,500,550,-10,sure,1.2041529470006935,sr,1,0.6971403269999428,1,"[(1, 0.0004980009998689638), (1, 0.6984178829989105)]",0.5177578451391142
solo,3,18,-3,16,anticlockwise,anticlockwise,correct,1.0575920249993942,ac,500,1270,-10,risky,1.4708309859997826,rs,3,1.640987603999747,5,"[(5, 0.0005268910008453531), (4, 1.1783071609988838), (3, 1.4022606239996094), (3, 1.6421845099994243)]",0.5910787089454912
solo,3,19,-3,8,anticlockwise,anticlockwise,correct,1.2625578489987674,ac,500,1270,-10,sure,1.5061471540011553,rs,2,2.365839970001616,6,"[(6, 0.00048664499990991317), (5, 1.3749254750000546), (4, 1.6308188769999106), (3, 1.8066554970009747), (2, 1.9827419810007996), (2, 2.36675241300145)]",0.5040658520178755
solo,3,20,-3,32,anticlockwise,anticlockwise,correct,0.6776489260009839,ac,500,1150,0,risky,0.9125956919997407,rs,3,1.2663500910002767,5,"[(5, 0.0004898030001641018), (4, 0.7553522660000453), (3, 1.0112952280014724), (3, 1.2672424080010387)]",0.502024887624318
solo,3,21,3,16,clockwise,clockwise,correct,1.046931704000599,ca,500,550,-10,sure,1.3789835389998188,rs,3,1.0421994520002045,3,"[(3, 0.0004698749999079155), (3, 1.0429374610012019)]",0.49604196737829165
solo,3,22,3,8,clockwise,clockwise,correct,0.9723916629991436,ca,500,640,0,risky,1.3076226770008361,rs,1,0.558351241001219,1,"[(1, 0.0005190190004213946), (1, 0.5592752669999754)]",0.5689283531654055
solo,3,23,-3,64,anticlockwise,anticlockwise,correct,1.0523008730015135,ac,500,590,-10,sure,2.3292377990001114,sr,3,1.905991442999948,1,"[(1, 0.00048452699957124423), (2, 1.2031606670007022), (3, 1.426995858000737), (3, 1.9069370739998703)]",0.5453012323702332
solo,3,24,3,32,clockwise,clockwise,correct,0.8264376280003489,ac,500,1270,10,risky,3.6646259119988827,rs,3,0.9479157059995487,3,"[(3, 0.00048443999912706204), (3, 0.9487529960006214)]",0.549484346895437
solo,3,25,3,64,clockwise,clockwise,correct,1.5104330560006929,ca,500,1270,10,sure,1.0715731990003405,sr,1,1.8682743730005313,3,"[(3, 0.0005202550000831252), (2, 1.4213129299987486), (1, 1.645270911998523), (1, 1.8690495720002218)]",0.4693222959675788
solo,3,26,-3,32,clockwise,anticlockwise,wrong,1.3968144919999759,ca,500,1270,-10,sure,0.9801544270012528,rs,1,1.6667361009986053,4,"[(4, 0.0005034570003772387), (3, 0.8995636109993939), (2, 1.027496089000124), (1, 1.2516458089994558), (1, 1.6674565929988603)]",0.5824641081496809
solo,3,27,3,32,clockwise,clockwise,correct,3.7338187120003568,ac,500,770,0,sure,0.9350540830000682,rs,2,2.344010505999904,3,"[(3, 0.00047142400035227183), (2, 1.8491211109994765), (2, 2.344901493999714)]",0.5202943190237546
solo,3,28,3,16,clockwise,clockwise,correct,1.056745204001345,ca,500,1040,0,risky,0.9738477679984499,sr,4,1.4526413959993079,3,"[(3, 0.0004980510002496885), (4, 1.24575702599941), (4, 1.4535611279989098)]",0.517302920459579
solo,3,29,-3,8,anticlockwise,anticlockwise,correct,0.5562647280003148,ac,500,1150,0,risky,0.908668760999717,rs,4,1.2309076319997985,3,"[(3, 0.00048810299995238893), (4, 0.8639453480009252), (4, 1.2317784450006002)]",0.43776670514290006
solo,3,30,-3,16,anticlockwise,anticlockwise,correct,0.6799033829993277,ac,500,1540,-10,risky,1.1864857790005772,sr,4,1.337458310999864,4,"[(4, 0.00057888700030162), (4, 1.3383962429998064)]",0.4242062826176157
solo,3,31,-3,64,clockwise,anticlockwise,wrong,0.6695145270005014,ca,500,1040,-10,sure,0.8259112020004977,rs,2,2.222677625999495,2,"[(2, 0.0005005410002922872), (2, 2.2235230980004417)]",0.45707594665036827
solo,3,32,3,8,clockwise,clockwise,correct,0.7629872269990301,ca,500,590,10,risky,2.1308786810004676,sr,6,3.539661905000685,1,"[(1, 0.0005320950003806502), (2, 2.2926736119989073), (3, 2.6606419929994445), (4, 2.852786859999469), (5, 3.04451913199955), (6, 3.236512526000297), (6, 3.540336035999644)]",0.5668144913564395
solo,3,33,-3,32,anticlockwise,anticlockwise,correct,0.6669771859997127,ac,500,1540,0,risky,1.2870079690001148,sr,5,2.0096137580003415,1,"[(1, 0.0005144440001458861), (2, 0.8424645220002276), (3, 1.0186752310000884), (4, 1.3865601979996427), (5, 1.5945343889998185), (5, 2.010390056999313)]",0.5756797168101051
solo,3,34,-3,64,clockwise,anticlockwise,wrong,0.6423665860002075,ac,500,700,10,risky,1.4233607209989714,sr,4,0.7172249060004106,4,"[(4, 0.0006509159993584035), (4, 0.718203356000231)]",0.4480245845100313
solo,3,35,3,64,clockwise,clockwise,correct,0.7915773790009553,ca,500,770,10,risky,1.022747780998543,rs,4,1.4364140999987285,1,"[(1, 0.0005063619992142776), (2, 0.781363751999379), (3, 0.9734584540001379), (4, 1.1653556809997099), (4, 1.4372101049993944)]",0.4840346873500495
solo,3,36,3,16,clockwise,clockwise,correct,0.7163767949987232,ac,500,1150,0,risky,0.8226423919986701,rs,5,0.8443018799989659,5,"[(5, 0.0004960570004186593), (5, 0.8452949510010512)]",0.4377304981054939
solo,3,37,-3,16,anticlockwise,anticlockwise,correct,0.8490021240013448,ca,500,1400,10,risky,0.997072678999757,sr,4,1.4109487860005174,4,"[(4, 0.0005088279995106859), (4, 1.4120314279989543)]",0.527652117283148
solo,3,38,3,32,clockwise,clockwise,correct,0.7712991190001048,ac,500,1400,0,risky,0.8913125849994685,rs,4,1.27815783799997,3,"[(3, 0.000550861001102021), (4, 1.0550782890004484), (4, 1.2789693030008493)]",0.44543849737777025
solo,3,39,3,8,clockwise,clockwise,correct,0.6125760230006563,ac,500,940,10,risky,1.1239838980000059,sr,4,1.2447727360013232,2,"[(2, 0.0005153570000402397), (3, 0.7496732239997073), (4, 0.9576277680007479), (4, 1.2457310770005279)]",0.42291309408141975
solo,3,40,-3,8,anticlockwise,anticlockwise,correct,1.2339473459996952,ca,500,1040,0,risky,0.8236560409986851,rs,3,2.045432943999913,1,"[(1, 0.00047550499948556535), (2, 1.054346731001715), (3, 1.2943051110014494), (3, 2.0463139150015195)]",0.4823670237359117
solo,3,41,-3,64,clockwise,anticlockwise,wrong,1.3438743730002898,ca,500,1540,0,risky,3.0086655149989383,rs,2,2.462643957000182,6,"[(6, 0.0005191069994907593), (5, 1.00775529800012), (4, 1.26368329899924), (3, 1.4556581239994557), (2, 1.9994204480008193), (2, 2.463438299999325)]",0.56853465322911
solo,3,42,3,16,clockwise,clockwise,correct,0.8685797340003774,ca,500,850,10,risky,1.2886438709992944,sr,4,0.8910717809994821,4,"[(4, 0.0005948509988229489), (4, 0.8919818269987445)]",0.4777924373489325
solo,3,43,-3,32,anticlockwise,anticlockwise,correct,1.2272367870009475,ca,500,1400,0,sure,1.7283458499987319,rs,1,1.2494404379995103,4,"[(4, 0.0004870369994023349), (3, 0.6903786160000891), (2, 0.866252085999804), (1, 1.0582690610008285), (1, 1.2501782609997463)]",0.5941946967911054
solo,3,44,-3,8,anticlockwise,anticlockwise,correct,1.7846344110002974,ca,500,700,0,sure,0.8888931569999841,sr,1,1.499006220999945,4,"[(4, 0.0005087650006316835), (3, 0.7799020080001355), (2, 1.0039010340005916), (1, 1.2281481700010772), (1, 1.4998112920002313)]",0.4438414511212908
solo,3,45,-3,16,anticlockwise,anticlockwise,correct,1.5227316090004024,ac,500,770,-10,sure,1.1013245539998024,rs,2,1.4630377670000598,5,"[(5, 0.0005105680011183722), (4, 0.8238149319986405), (3, 0.9999739389986644), (2, 1.1920196829996712), (2, 1.463924715999383)]",0.5751444497425584
solo,3,46,3,8,clockwise,clockwise,correct,0.7109353489995556,ac,500,850,-10,risky,0.8323707620002097,sr,5,1.0769030150004255,5,"[(5, 0.0005126689993630862), (5, 1.0778470280001784)]",0.42855423448613283
solo,3,47,3,32,clockwise,clockwise,correct,0.7822205020002002,ca,500,1150,-10,risky,0.7405553249991499,sr,4,1.2298460749989317,3,"[(3, 0.0005261639998934697), (4, 0.9907613319992379), (4, 1.230767258999549)]",0.5895033963109927
solo,3,48,3,64,clockwise,clockwise,correct,0.7691625380011828,ca,500,1540,-10,sure,0.9693252270008088,sr,1,1.9124299110007996,1,"[(1, 0.0005039199986640597), (1, 1.9136840499995742)]",0.5473635152392471
solo,3,49,3,8,clockwise,clockwise,correct,0.4823802950013487,ac,500,1040,10,risky,0.7741458710006555,rs,6,0.7017284100002144,6,"[(6, 0.0005189839994272916), (6, 0.7025255600001401)]",0.40533962341747043
solo,3,50,-3,64,clockwise,anticlockwise,wrong,0.7116594780000014,ac,500,770,0,sure,1.713412690000041,sr,3,2.0673674720001145,6,"[(6, 0.0005043069995736005), (5, 1.0763669839998329), (4, 1.3163416190000135), (3, 1.8764187319993653), (3, 2.0682779390008363)]",0.5213432485687266
solo,3,51,-3,32,anticlockwise,anticlockwise,correct,1.2374237490002997,ca,500,700,0,sure,2.2191414200005966,rs,1,0.5366633499997988,1,"[(1, 0.0005298240012052702), (1, 0.5374333759991714)]",0.572085717032901
solo,3,52,-3,16,anticlockwise,anticlockwise,correct,0.8913716480001312,ca,500,850,0,sure,1.2788757670004998,rs,2,2.4180643529998633,3,"[(3, 0.0005054510002082679), (2, 2.179000902999178), (2, 2.418942436999714)]",0.45357051485471056
solo,3,53,3,64,anticlockwise,clockwise,wrong,0.9877358650010137,ca,500,1400,-10,risky,2.491548474999945,sr,3,1.2780298979996587,5,"[(5, 0.0005272930011415156), (4, 0.7030724870000995), (3, 0.9591014680008811), (3, 1.278961005000383)]",0.41384002375676654
solo,3,54,-3,8,anticlockwise,anticlockwise,correct,2.0013368299987633,ac,500,640,0,sure,1.7521459820000018,rs,2,2.7772145479993924,4,"[(4, 0.0005125719999341527), (3, 1.8500046459994337), (2, 2.458204542999738), (2, 2.778092827000364)]",0.5001560723772466
solo,3,55,3,16,clockwise,clockwise,correct,0.3690280230002827,ac,500,590,-10,risky,1.112055905001398,sr,5,1.4093599509997148,4,"[(4, 0.0005236010001681279), (5, 1.1864802279997093), (5, 1.4101224529986212)]",0.49734373199755266
solo,3,56,3,32,clockwise,clockwise,correct,0.8186420109996106,ac,500,700,10,risky,4.248915227999532,rs,4,1.4452294020011323,2,"[(2, 0.000501520000398159), (3, 0.9499728829996457), (4, 1.1420668740011024), (4, 1.4460325140007626)]",0.4462491640212209
solo,3,57,3,64,clockwise,clockwise,correct,2.260635970000294,ca,500,940,0,sure,1.4575992980007868,sr,2,0.7808223829997587,2,"[(2, 0.0005177149996598018), (2, 0.781794603999515)]",0.4322371426392772
solo,3,58,-3,8,anticlockwise,anticlockwise,correct,1.4116546330005804,ca,500,850,0,sure,1.2177235809995182,sr,1,0.7433939229995303,1,"[(1, 0.0005254640000202926), (1, 0.7441501960001915)]",0.5409455479914458
solo,3,59,3,32,clockwise,clockwise,correct,0.5085815980000916,ac,500,590,-10,sure,3.4079601590001403,rs,3,1.533867697999085,3,"[(3, 0.0004933729996992042), (3, 1.5347897060000832)]",0.5656591299665096
solo,3,60,3,8,clockwise,clockwise,correct,0.6157160120001208,ac,500,700,10,risky,0.8694871150000836,sr,4,1.5448415439987002,4,"[(4, 0.0004996699990442721), (4, 1.5459294539996336)]",0.5240933182902304
solo,3,61,-3,32,anticlockwise,anticlockwise,correct,2.2779608529999678,ac,500,770,10,risky,1.328773576000458,sr,4,1.4746659600004932,2,"[(2, 0.0004867749994446058), (3, 0.9797739959994942), (4, 1.187519937999241), (4, 1.4756296309988102)]",0.4096402855158092
solo,3,62,-3,64,anticlockwise,anticlockwise,correct,1.7067659790009202,ac,500,1150,10,risky,1.1016960209999525,sr,4,1.432128243999614,3,"[(3, 0.0004970610007148935), (4, 1.1450611199998093), (4, 1.433101724000153)]",0.576824200219073
solo,3,63,-3,16,anticlockwise,anticlockwise,correct,1.0632536529992649,ca,500,940,0,risky,0.8996911630001705,rs,4,1.2690354909991584,2,"[(2, 0.0004932530009682523), (3, 0.8540923700002168), (4, 1.0459594349995314), (4, 1.269919435000702)]",0.46952278606216796
solo,3,64,3,16,clockwise,clockwise,correct,0.8097528389989748,ca,500,640,10,risky,1.6642815849991166,rs,5,0.6753094889991189,5,"[(5, 0.000501943999552168), (5, 0.6763684400011698)]",0.4885620144969869
solo,3,65,3,64,clockwise,clockwise,correct,0.8620376029994077,ca,500,850,10,risky,0.8811286320014915,sr,4,1.1726022860002558,2,"[(2, 0.0005126549986016471), (3, 0.6615727139997034), (4, 0.8375828879998153), (4, 1.1734244369999942)]",0.5379289562794387
solo,3,66,3,8,clockwise,clockwise,correct,1.0073619949998829,ca,500,1150,0,risky,0.6858951430003799,sr,5,1.2887448599994968,4,"[(4, 0.000512009999511065), (5, 1.065924337000979), (5, 1.2895149370015133)]",0.45901341607205287
solo,3,67,-3,32,anticlockwise,anticlockwise,correct,0.7359741319996829,ac,500,850,0,sure,1.65684630099895,sr,3,1.0213835790000303,4,"[(4, 0.0005131180005264468), (3, 0.57449533199906), (3, 1.0222847049990378)]",0.40017780959122634
solo,3,68,-3,16,anticlockwise,anticlockwise,correct,0.8439016070005891,ac,500,700,10,sure,0.9128505000007863,sr,2,1.490498267001385,6,"[(6, 0.0005085159991722321), (5, 0.5474456170013582), (4, 0.7714286709997396), (3, 0.915404336001302), (2, 1.3154658640014532), (2, 1.4925565040011861)]",0.4841779410456667
solo,3,69,3,32,clockwise,clockwise,correct,0.6694215240004269,ac,500,1040,-10,sure,1.7211733479998657,sr,2,0.5875304460005282,2,"[(2, 0.0004917509995721048), (2, 0.5884413189996849)]",0.5106569966280484
solo,3,70,-3,64,clockwise,anticlockwise,wrong,0.734179219998623,ac,500,1270,10,risky,1.7193453700001555,sr,3,1.145618270000341,3,"[(3, 0.0005034999994677491), (3, 1.1465559829994163)]",0.4109672423328406
solo,3,71,3,16,clockwise,clockwise,correct,0.783329068999592,ca,500,1540,-10,risky,0.6314732170012576,sr,2,2.2274551460013754,5,"[(5, 0.0005025789996579988), (4, 1.4603840420004417), (3, 1.668554050000239), (2, 1.860398823999276), (2, 2.228309640999214)]",0.5726885660786896
solo,3,72,-3,8,anticlockwise,anticlockwise,correct,0.9604883550000523,ac,500,1400,-10,risky,0.8321829439992143,sr,4,1.4450975079998898,5,"[(5, 0.0004895830006717006), (4, 1.174211034000109), (4, 1.4459869170004822)]",0.5361562276948674
solo,3,73,3,8,clockwise,clockwise,correct,0.5975287560013385,ac,500,550,10,sure,2.627709369000513,sr,4,1.408579512999495,5,"[(5, 0.0004958469999110093), (4, 1.0576183020002645), (4, 1.4095315619997564)]",0.4211044059879584
solo,3,74,-3,32,anticlockwise,anticlockwise,correct,0.5589359599998716,ac,500,940,-10,sure,1.0873916109994752,rs,3,1.066234253001312,5,"[(5, 0.0005134380007802974), (4, 0.5551611609989777), (3, 0.7951889439991646), (3, 1.0672134469987213)]",0.5226590100997304
solo,3,75,3,32,clockwise,clockwise,correct,0.6275949299997592,ac,500,940,-10,risky,0.8173157630008063,sr,4,1.606545978000213,1,"[(1, 0.000493876001200988), (2, 0.791905656000381), (3, 0.9678553650010144), (4, 1.1438110550006968), (4, 1.6077867040003184)]",0.5723046268235523
solo,3,76,-3,64,anticlockwise,anticlockwise,correct,1.0682620299994596,ca,500,940,-10,sure,1.4004100450001715,sr,2,0.8873599769995053,2,"[(2, 0.000507375998495263), (2, 0.8883312939997268)]",0.5231223491043864
solo,3,77,3,16,clockwise,clockwise,correct,0.7165935709999758,ca,500,700,10,risky,1.1265357989996119,rs,5,0.7991888060005294,5,"[(5, 0.0004915000008622883), (5, 0.8001844480004365)]",0.4534984192601117
solo,3,78,-3,16,anticlockwise,anticlockwise,correct,0.8825563859991234,ca,500,1150,0,risky,0.9016854290002811,rs,4,2.0560379489998013,2,"[(2, 0.000493669998832047), (3, 1.3531204940009047), (4, 1.8170006920008746), (4, 2.0569866559999355)]",0.5979008922037845
solo,3,79,3,64,anticlockwise,clockwise,wrong,0.9744174320003367,ca,500,1150,10,sure,1.309576644000117,rs,2,1.1678749689999677,4,"[(4, 0.0004891789994871942), (3, 0.7689682519994676), (2, 0.9927881490002619), (2, 1.168777864999356)]",0.46492024083643557
solo,3,80,-3,8,anticlockwise,anticlockwise,correct,1.0804898800015508,ca,500,1540,10,risky,0.9481392199995753,sr,4,1.603948357000263,4,"[(4, 0.0004921119998471113), (4, 1.6049003650005034)]",0.4927248944638909
solo,3,81,-3,64,clockwise,anticlockwise,wrong,0.6514033749990631,ac,500,640,10,risky,1.4478546370010008,sr,5,0.7398568699991301,5,"[(5, 0.0004938659985782579), (5, 0.7408696210004564)]",0.49865871410230445
solo,3,82,3,32,anticlockwise,clockwise,wrong,1.0573819330002152,ca,500,640,-10,sure,1.8696128970004793,rs,2,0.8414295209986449,2,"[(2, 0.0004918089998682262), (2, 0.8423812429991813)]",0.4061012067462188
solo,3,83,3,8,clockwise,clockwise,correct,0.6526599769986206,ca,500,1540,10,risky,0.6498410269996384,sr,5,1.9747040150014072,1,"[(1, 0.0004750379994220566), (2, 1.0636594829993555), (3, 1.2395406100004038), (4, 1.5437206019996665), (5, 1.7035497859997122), (5, 1.9755721050005377)]",0.542575791813655
solo,3,84,-3,8,anticlockwise,anticlockwise,correct,1.1332040209999832,ca,500,550,10,sure,1.430520230998809,rs,2,0.9957974430017202,4,"[(4, 0.0005004079994250787), (3, 0.5328901980010414), (2, 0.7567284530014149), (2, 0.9965841950015601)]",0.5221816309138176
solo,3,85,-3,16,anticlockwise,anticlockwise,correct,1.3929804540002806,ca,500,590,0,sure,1.1043142019989318,rs,3,1.2424244089997956,5,"[(5, 0.0005179109994060127), (4, 0.7793068400005723), (3, 1.0193896720011253), (3, 1.2432796100001724)]",0.5154448077126765
solo,3,86,3,64,anticlockwise,clockwise,wrong,0.9879040590003569,ac,500,590,0,sure,1.0198713729987503,rs,2,1.9289568220010551,6,"[(6, 0.00047717299821670167), (5, 0.7939420619986777), (4, 1.0339405710001301), (3, 1.4979759829984687), (2, 1.6897638459995505), (2, 1.929780224998467)]",0.5866042919334734
solo,3,87,-3,32,anticlockwise,anticlockwise,correct,0.8210591509996448,ac,500,1040,10,risky,1.3238021559991466,rs,4,0.7644752579999476,4,"[(4, 0.0004886759998043999), (4, 0.7655119890005153)]",0.4398216790169535
solo,3,88,3,16,clockwise,clockwise,correct,1.1120256270005484,ac,500,770,10,risky,3.714525670000512,rs,4,1.860866184999395,1,"[(1, 0.00047708700003568083), (2, 1.2697934369989525), (3, 1.4296466159994452), (4, 1.6057681420006702), (4, 1.8616471929999534)]",0.4256268446165732
solo,3,89,-3,8,anticlockwise,anticlockwise,correct,1.027885702000276,ac,500,590,0,sure,1.649067312000625,sr,4,1.6691244100002223,5,"[(5, 0.000488689000121667), (4, 1.3179180750012165), (4, 1.669899346999955)]",0.4208213346068156
solo,3,90,3,32,clockwise,clockwise,correct,0.7092467189995659,ac,500,550,10,sure,1.424447033999968,rs,2,0.8138678770010301,4,"[(4, 0.0004956069988111267), (3, 0.4629028829986055), (2, 0.6387878639998235), (2, 0.8147237799985305)]",0.5981594870190934
solo,3,91,3,8,clockwise,clockwise,correct,0.7111252039994724,ac,500,1400,-10,risky,0.7850374900008319,sr,4,1.160167822999938,3,"[(3, 0.0005036620004830183), (4, 0.9052176719997078), (4, 1.16097294499923)]",0.4228030394567167
solo,3,92,3,16,clockwise,clockwise,correct,1.0911026850008056,ca,500,1270,10,risky,1.45414782700027,rs,4,1.2266184290001547,6,"[(6, 0.000479559999803314), (5, 0.6995945979997487), (4, 0.9076013650010282), (4, 1.2274762609995378)]",0.4205160776067583
solo,3,93,-3,64,anticlockwise,anticlockwise,correct,0.7231362309994438,ac,500,850,0,sure,1.117298896999273,sr,3,2.3263180519988964,3,"[(3, 0.0004967959994246485), (3, 2.32716604900088)]",0.438943909381626
solo,3,94,3,64,anticlockwise,clockwise,wrong,1.3594223719992442,ac,500,1040,10,sure,1.0878641799990874,sr,2,1.8507118369998352,6,"[(6, 0.0005274509985611076), (5, 0.6198283180001454), (4, 1.0196870090003358), (3, 1.2436717890013824), (2, 1.6116238050017273), (2, 1.851597650000258)]",0.5217190456286225
solo,3,95,-3,32,clockwise,anticlockwise,wrong,0.4905182700003934,ac,500,590,10,sure,1.7889728730006027,sr,3,1.2759625609996874,4,"[(4, 0.000500284999361611), (3, 1.0208362180001131), (3, 1.2767860100011603)]",0.45404765955610393
solo,3,96,-3,16,clockwise,anticlockwise,wrong,0.8325053680000565,ca,500,550,10,sure,1.2066513480003778,sr,3,1.1963218900000356,4,"[(4, 0.000493740000820253), (3, 0.909233481001138), (3, 1.1971925110010488)]",0.46724471055597255
solo,4,1,3,8,clockwise,clockwise,correct,0.5163200349998078,ac,500,590,-10,sure,1.5906814380014112,sr,5,0.9259932770000887,3,"[(3, 0.0003694539991556667), (4, 0.41482305899990024), (5, 0.6229906640000991), (5, 0.926827981000315)]",0.515440944555522
solo,4,2,3,16,anticlockwise,clockwise,wrong,0.5558124609997321,ac,500,640,10,risky,1.0047307810000348,sr,6,1.4024613559995487,3,"[(3, 0.000503561999721569), (4, 0.5874779869991471), (5, 0.7952365529999952), (6, 1.2113859439996304), (6, 1.4031969679999747)]",0.5825583828614265
solo,4,3,-3,16,clockwise,anticlockwise,wrong,1.063870247999148,ca,500,1540,10,sure,1.8443256680002378,rs,1,1.535902100000385,2,"[(2, 0.0004731290009658551), (1, 0.8968358219990478), (1, 1.5368720440001198)]",0.5400406388436932
solo,4,4,-3,32,anticlockwise,anticlockwise,correct,0.8550142280000728,ac,500,1270,-10,risky,0.6192903989995102,rs,4,0.9530796189992543,2,"[(2, 0.00047028799963300116), (3, 0.4900819140002568), (4, 0.7940684179993696), (4, 0.9539086410004529)]",0.5835872029885609
solo,4,5,3,32,clockwise,clockwise,correct,0.776800044999618,ca,500,590,-10,sure,1.2164701639994746,rs,2,1.0618872220002231,2,"[(2, 0.00046997400022519287), (2, 1.0627572640005383)]",0.5260286029436072
solo,4,6,-3,8,anticlockwise,anticlockwise,correct,0.7540269740002259,ca,500,1040,0,risky,0.6985619440001756,rs,6,0.868787641000381,3,"[(3, 0.00047373599954880774), (4, 0.4378803639992839), (5, 0.6138192640009947), (6, 0.7417239970000082), (6, 0.8695378869997512)]",0.4974167372181087
solo,4,7,3,64,clockwise,clockwise,correct,0.47192563400130894,ac,500,1150,0,risky,0.908030021999366,rs,3,0.957901755000421,2,"[(2, 0.0004781360003107693), (3, 0.47900237799876777), (3, 0.9587727109992557)]",0.5394693300558926
solo,4,8,-3,64,anticlockwise,anticlockwise,correct,0.5909753710002406,ca,500,850,10,risky,1.2627110310004355,sr,4,2.2574737109989655,1,"[(1, 0.0005047889990237309), (2, 0.6106134130004648), (3, 0.7704259530000854), (4, 0.946425709000323), (5, 1.1225121730003593), (6, 1.2824117190011748), (5, 1.6506844260002254), (4, 1.8264407750011742), (4, 2.2583821400003217)]",0.4681180867009009
solo,4,9,3,16,clockwise,clockwise,correct,1.0037241609988996,ca,500,770,-10,sure,0.8269841380006255,rs,1,1.4236907869999413,4,"[(4, 0.0005102489994897041), (3, 0.512436503000572), (2, 0.688425559001189), (1, 1.2486987810007122), (1, 1.4246417850008584)]",0.5707995991673226
solo,4,10,-3,64,clockwise,anticlockwise,wrong,0.6239287240005069,ca,500,1270,0,risky,0.7181673320010304,sr,3,1.0480555880003521,4,"[(4, 0.0005182839995541144), (3, 0.7930805929991038), (3, 1.0487374499989528)]",0.4423112912372497
solo,4,11,3,32,anticlockwise,clockwise,wrong,0.7392417800001567,ca,500,700,10,sure,1.164587155000845,rs,3,0.8833362919995125,6,"[(6, 0.0004862770001636818), (5, 0.3562155330000678), (4, 0.5642730010004016), (3, 0.7079952549993322), (3, 0.8840507889999571)]",0.557362112704332
solo,4,12,-3,16,anticlockwise,anticlockwise,correct,0.5022748009996576,ac,500,1040,-10,risky,0.5693641440011561,sr,6,0.48811488399951486,6,"[(6, 0.0005012339988752501), (6, 0.4889074109996727)]",0.5206519148955349
solo,4,13,-3,8,anticlockwise,anticlockwise,correct,0.6882153290007409,ac,500,850,-10,sure,1.1793257259996608,rs,4,1.3138829700001224,3,"[(3, 0.0004970890004187822), (4, 1.0428154050005105), (4, 1.3147154279995448)]",0.4083328649962195
solo,4,14,-3,32,anticlockwise,anticlockwise,correct,1.0118908170006762,ac,500,940,-10,risky,1.39392029299961,rs,3,0.9279719759997533,3,"[(3, 0.0004688300014095148), (3, 0.9288629439997749)]",0.5125836082887678
solo,4,15,3,64,clockwise,clockwise,correct,0.6243347580002592,ac,500,1040,-10,risky,0.7663513389998116,sr,2,1.4296062299999903,1,"[(1, 0.00047144099880824797), (2, 1.2227653830013878), (2, 1.4305089530007535)]",0.5439222353679737
solo,4,16,3,8,clockwise,clockwise,correct,1.222277810000378,ca,500,850,-10,sure,0.7481885260003764,sr,1,1.3641640749992803,6,"[(6, 0.000493021998408949), (5, 0.5171833200001856), (4, 0.6611210490009398), (3, 0.8211354980012402), (2, 0.9810092010011431), (1, 1.1411624459997256), (1, 1.3651039200012747)]",0.4419120658416976
solo,4,17,-3,32,anticlockwise,anticlockwise,correct,0.8523745319998852,ca,500,590,10,sure,0.8096461889999773,rs,2,1.007707812001172,4,"[(4, 0.00048658600098860916), (3, 0.5929106120001961), (2, 0.800703118000456), (2, 1.0086006860001362)]",0.4967935748546231
solo,4,18,-3,16,anticlockwise,anticlockwise,correct,0.8461822970002686,ca,500,700,10,sure,0.8357757719986694,rs,2,1.6881608359999518,3,"[(3, 0.00047473500126216095), (2, 0.7293226469992078), (3, 1.1932008519997908), (2, 1.5450500639999518), (2, 1.6890564269997412)]",0.49108031521966805
solo,4,19,-3,8,anticlockwise,anticlockwise,correct,1.5473166709998623,ac,500,590,10,risky,1.6532460470007209,rs,4,1.368104156001209,3,"[(3, 0.00047677500151621643), (4, 1.0330900009994366), (4, 1.3690076820003014)]",0.5042393244498256
solo,4,20,3,64,clockwise,clockwise,correct,2.648977808001291,ca,500,1540,0,risky,1.1737069969985896,rs,2,2.1567288230016857,5,"[(5, 0.0004741470002045389), (4, 0.6055121009994764), (3, 0.7975585929998488), (2, 1.293702934999601), (3, 1.5656552269992972), (2, 2.0138525139991543), (2, 2.1575921139992715)]",0.5022160525983865
solo,4,21,3,8,clockwise,clockwise,correct,0.8446422519991756,ca,500,1540,-10,risky,0.8334006479999516,rs,4,1.174314060001052,5,"[(5, 0.0005039289990236284), (4, 0.8074214629996277), (4, 1.1751851829994848)]",0.5155961321316997
solo,4,22,3,32,clockwise,clockwise,correct,1.2806160870004533,ca,500,640,0,sure,2.0046653310000693,sr,1,1.9472294070001226,1,"[(1, 0.0004794270007550949), (1, 1.9479485480005678)]",0.411952739964713
solo,4,23,-3,64,anticlockwise,anticlockwise,correct,1.3164903670003696,ca,500,640,0,sure,0.8554732430002332,rs,1,0.8751880559993879,4,"[(4, 0.000473703001262038), (3, 0.33221940499970515), (2, 0.5080508510000072), (1, 0.6840448689999903), (1, 0.8760545639997872)]",0.4765680283493535
solo,4,24,3,16,clockwise,clockwise,correct,0.6101573169999028,ac,500,550,-10,sure,1.0720914829998947,rs,2,1.4519232160000684,5,"[(5, 0.0004955010008416139), (4, 0.5250488410001708), (3, 0.7329479569998512), (2, 0.8929935289997957), (2, 1.4527425060005044)]",0.4236249065306938
solo,4,25,-3,8,anticlockwise,anticlockwise,correct,0.887085936999938,ca,500,1400,-10,risky,0.8103908359989873,sr,5,0.9602401760002977,4,"[(4, 0.0004902079999737907), (3, 0.2572978139996849), (4, 0.593130752999059), (5, 0.7371777150001435), (5, 0.9610517399996752)]",0.5353999724043574
solo,4,26,-3,32,anticlockwise,anticlockwise,correct,0.9796954190005636,ca,500,550,0,sure,0.9784931739995955,rs,4,1.2337415830006648,2,"[(2, 0.0004838209988520248), (3, 0.578792661000989), (4, 0.7385841380000784), (4, 1.234552068000994)]",0.42151461215311936
solo,4,27,-3,16,anticlockwise,anticlockwise,correct,1.4003758740000194,ca,500,550,10,sure,1.271506822999072,rs,2,1.355534713000452,3,"[(3, 0.000480397000501398), (2, 0.476591656999517), (2, 1.356522538999343)]",0.4790514759453859
solo,4,28,3,16,clockwise,clockwise,correct,0.6994254720011668,ac,500,940,10,risky,0.7894977859996288,sr,5,1.549116865000542,2,"[(2, 0.00047235199963324703), (3, 0.5421564320004109), (4, 0.7981402840014198), (5, 1.374156801000936), (5, 1.5500728560000425)]",0.527864911576192
solo,4,29,3,8,clockwise,clockwise,correct,0.7556601830001455,ac,500,550,10,sure,1.2281868929985649,sr,3,2.433852100999502,5,"[(5, 0.00047883999832265545), (4, 0.4029007970002567), (3, 0.5948357590004889), (3, 2.434871358998862)]",0.5557356659160071
solo,4,30,3,64,anticlockwise,clockwise,wrong,1.7828716080002778,ca,500,700,10,sure,0.8550774109990016,sr,1,1.7708451099988451,6,"[(6, 0.00048274000073433854), (5, 0.4599719409998215), (4, 0.6359023069999239), (3, 0.8120101590011473), (2, 0.9716862309996941), (1, 1.147773058999519), (1, 1.771703690999857)]",0.5112955416655536
solo,4,31,3,32,anticlockwise,clockwise,wrong,1.609109434999482,ca,500,1150,10,risky,0.928157320999162,rs,3,1.520461026000703,1,"[(1, 0.00047979999908420723), (2, 0.6095109950001643), (3, 0.7854640219993598), (3, 1.521381057000326)]",0.5466418581492589
solo,4,32,-3,64,clockwise,anticlockwise,wrong,1.7682178800005204,ac,500,590,0,sure,1.064006997999968,rs,1,1.0117367950006155,2,"[(2, 0.00046995500088087283), (1, 0.24457314600113023), (2, 0.5487152679997962), (1, 0.8527845370008436), (1, 1.0124813230013388)]",0.5654688915967983
solo,4,33,-3,16,clockwise,anticlockwise,wrong,0.5962810620003438,ac,500,590,10,sure,1.715189262999047,sr,2,1.3012503680001828,5,"[(5, 0.0005014769994886592), (4, 0.3900403559982806), (3, 0.5500827979994938), (2, 0.7100720719990932), (2, 1.3019101769987174)]",0.43315482240810615
solo,4,34,3,32,clockwise,clockwise,correct,0.5380085369997687,ac,500,940,-10,risky,2.5549079779993917,sr,2,1.1635844980010006,5,"[(5, 0.0004847999989578966), (4, 0.556680260999201), (3, 0.7324879489988234), (2, 0.9085764009996637), (2, 1.1645979789991543)]",0.45056678668712685
solo,4,35,-3,8,anticlockwise,anticlockwise,correct,0.7542999889992643,ca,500,550,-10,sure,1.2433230560000084,sr,5,0.8791360020004504,6,"[(6, 0.0004821459988306742), (5, 0.5918809710001369), (5, 0.8799977369999397)]",0.5319088021921199
solo,4,36,3,64,clockwise,clockwise,correct,0.7417162070014456,ca,500,640,-10,sure,0.7665540850011894,sr,4,0.8539153999990958,4,"[(4, 0.0004957010005455231), (4, 0.8549459009991551)]",0.4116644182718173
solo,4,37,-3,32,clockwise,anticlockwise,wrong,0.6169873119997646,ac,500,1400,10,risky,1.0943677930008562,rs,2,0.8006904060002853,2,"[(2, 0.0004972650003765011), (2, 0.8013595630000054)]",0.5558712443275401
solo,4,38,3,8,clockwise,clockwise,correct,0.5669907350002177,ac,500,1040,10,sure,1.5113639890005288,rs,1,0.752796340999339,4,"[(4, 0.00048681500084057916), (3, 0.2258818459995382), (2, 0.40159320299972023), (1, 0.5456573129995377), (1, 0.7536671919988294)]",0.5146076897003904
solo,4,39,-3,64,anticlockwise,anticlockwise,correct,0.568244116000642,ca,500,1150,0,risky,0.568278652999652,rs,4,0.8078189810003096,1,"[(1, 0.00047359000018332154), (2, 0.3608978810007102), (3, 0.5047430829999939), (4, 0.664795545000743), (4, 0.808691918000477)]",0.5601652110566532
solo,4,40,3,16,clockwise,clockwise,correct,0.891642911999952,ca,500,1270,-10,risky,0.5899117699991621,sr,3,0.7326879240008566,1,"[(1, 0.00047583700143150054), (2, 0.3977062329995533), (3, 0.57366359200023), (3, 0.7335085729991988)]",0.576732712144495
solo,4,41,3,32,clockwise,clockwise,correct,0.7779343090005568,ca,500,770,-10,sure,1.281311001001086,sr,3,0.9004006249997474,6,"[(6, 0.00047839199942245614), (5, 0.3574663100007456), (4, 0.517366251000567), (3, 0.6932959000005212), (3, 0.9013102820008498)]",0.41430964938680925
solo,4,42,-3,32,anticlockwise,anticlockwise,correct,0.5846644180001022,ac,500,640,-10,sure,0.903626768000322,rs,4,0.729273077000471,2,"[(2, 0.0004846929987252224), (3, 0.39436404000116454), (4, 0.5382745630013233), (4, 0.7301717050013394)]",0.4652249719673011
solo,4,43,-3,16,anticlockwise,anticlockwise,correct,0.8646172799999476,ac,500,1150,0,risky,0.4695754339991254,sr,4,0.7286117069997999,3,"[(3, 0.00047800300126255024), (4, 0.5698786400007521), (4, 0.7295124449992727)]",0.5552091955545624
solo,4,44,3,8,clockwise,clockwise,correct,0.45443699399947945,ac,500,940,10,risky,0.7787785309992614,rs,5,0.961782962000143,1,"[(1, 0.0005193540000618668), (2, 0.29089383899918175), (3, 0.4346498960003373), (4, 0.5786934679999831), (5, 0.7225636479997775), (5, 0.9626274359998206)]",0.4069566066763209
solo,4,45,3,64,anticlockwise,clockwise,wrong,0.7819203840008413,ca,500,850,10,risky,1.845401145001233,rs,3,0.7212814989998151,4,"[(4, 0.0004937169996992452), (3, 0.4659898819991213), (3, 0.7220213599994167)]",0.5985410268917324
solo,4,46,3,16,anticlockwise,clockwise,wrong,0.6172780619999685,ca,500,590,0,sure,1.048295890999725,rs,4,1.0760000419995777,1,"[(1, 0.0004912130007141968), (1, 0.3409043039991957), (2, 0.5968799469992518), (3, 0.7728125630001159), (4, 0.9009795319998375), (4, 1.0767536450002808)]",0.5599504883581298
solo,4,47,-3,8,anticlockwise,anticlockwise,correct,0.5245769869998185,ca,500,940,0,risky,0.7509688659993117,rs,4,1.783046339998691,4,"[(4, 0.00047503299902018625), (4, 1.7838969509994058)]",0.5689482293935043
solo,4,48,-3,64,anticlockwise,anticlockwise,correct,1.7368360709988337,ca,500,770,10,risky,0.8262509890009824,sr,5,1.1991351019987633,6,"[(6, 0.0005072839994681999), (5, 0.3681669249999686), (4, 0.5279140339989681), (5, 0.9761452349994215), (5, 1.1998979969994252)]",0.4534160496320342
solo,4,49,-3,8,anticlockwise,anticlockwise,correct,0.6477766259995406,ca,500,770,-10,sure,0.7081668449991412,rs,4,0.7828068800008623,1,"[(1, 0.0004996589996153489), (2, 0.39979069199944206), (3, 0.5436566879998281), (4, 0.6717901270003495), (4, 0.7835623350001697)]",0.5865893500918236
solo,4,50,3,16,clockwise,clockwise,correct,0.4081351389995689,ac,500,1540,10,risky,0.6863290910005162,rs,3,1.4167917929989926,5,"[(5, 0.00048707200039643794), (4, 0.9216820580004423), (3, 1.1775863390012091), (3, 1.4176134380013536)]",0.46368144393517957
solo,4,51,3,64,anticlockwise,clockwise,wrong,0.45990597899981367,ca,500,590,0,sure,0.9112871409997751,rs,5,1.025031322000359,1,"[(1, 0.0004927479985781247), (2, 0.4499217459997453), (3, 0.609754895000151), (4, 0.7540273630002048), (5, 0.897995835999609), (5, 1.025748725000085)]",0.4094414219104833
solo,4,52,-3,64,anticlockwise,anticlockwise,correct,0.4900278820005042,ca,500,1400,-10,risky,0.573877695000192,rs,5,0.7658500779998576,5,"[(5, 0.000493627001560526), (5, 0.7665124109989847)]",0.5968496434655116
solo,4,53,3,32,clockwise,clockwise,correct,0.8544127979985205,ac,500,1040,0,sure,0.9548892469993007,rs,1,0.4274513560012565,1,"[(1, 0.00048916300147539), (1, 0.4284596239995153)]",0.4762100499860412
solo,4,54,-3,16,anticlockwise,anticlockwise,correct,0.5101511419998133,ca,500,850,-10,risky,0.9765576629997668,sr,4,0.5749363970007835,3,"[(3, 0.0004922450007143198), (4, 0.3838125799993577), (4, 0.5756651539995801)]",0.5766072241845218
solo,4,55,-3,32,anticlockwise,anticlockwise,correct,0.7685196239999641,ac,500,1040,10,risky,0.47294605399838474,sr,3,0.6844935830013128,2,"[(2, 0.0004827979992114706), (3, 0.3815484779988765), (3, 0.6853008589987439)]",0.4471881192938522
solo,4,56,3,8,clockwise,clockwise,correct,0.6777857599990966,ca,500,1400,-10,risky,0.4330542970001261,sr,2,0.9495949819993257,3,"[(3, 0.0004766710007970687), (2, 0.7906544790002954), (2, 0.9503116500000033)]",0.5598424658339192
solo,4,57,3,8,anticlockwise,clockwise,wrong,0.5701959909983998,ac,500,1150,-10,sure,0.7143997809998837,rs,1,0.4361975430001621,1,"[(1, 0.00047821599946473725), (1, 0.24536613500094973), (1, 0.4370451340000727)]",0.4218485995742568
solo,4,58,3,16,clockwise,clockwise,correct,1.2050992570002563,ac,500,1150,0,risky,0.7315686689998984,rs,2,0.7558904810011882,1,"[(1, 0.0004765230005432386), (2, 0.5810728989999916), (2, 0.7566667750015768)]",0.5972436131089823
solo,4,59,-3,32,anticlockwise,anticlockwise,correct,1.0698932970008173,ca,500,1540,-10,risky,0.8096419120010978,rs,2,1.7429070649995992,5,"[(5, 0.00048760299978312105), (4, 0.6877814170002239), (3, 0.8638352020007005), (2, 1.5358815449999383), (2, 1.7438102450014412)]",0.5079900554578906
solo,4,60,-3,64,anticlockwise,anticlockwise,correct,0.7636415960005252,ac,500,1540,-10,risky,0.6279278960009833,rs,4,0.7839893000000302,2,"[(2, 0.0005039450006734114), (3, 0.3529638979998708), (4, 0.5128981189991464), (4, 0.7849112449985114)]",0.5983657847886752
solo,4,61,-3,16,anticlockwise,anticlockwise,correct,0.7597414169995318,ca,500,940,0,risky,1.5994746010001109,sr,3,0.6932853660000546,2,"[(2, 0.0004803360006917501), (3, 0.3265600380000251), (3, 0.6941165589996672)]",0.5209454721941265
solo,4,62,3,32,clockwise,clockwise,correct,0.5907830260002811,ca,500,1540,10,risky,0.9257169860011345,sr,4,1.1025261100003263,2,"[(2, 0.0006142780002846848), (3, 0.6077859619999799), (4, 0.8635427440003696), (4, 1.1034481289989344)]",0.5591907758890418
solo,4,63,-3,8,anticlockwise,anticlockwise,correct,0.7805178100006742,ca,500,700,-10,risky,0.9648770700005116,sr,6,0.9796770020002441,2,"[(2, 0.0004794989999936661), (3, 0.3887047320004058), (4, 0.5325367080004071), (5, 0.692586035000204), (6, 0.8205469200001971), (6, 0.980563617998996)]",0.4150158427451883
solo,4,64,3,64,anticlockwise,clockwise,wrong,0.8961117109993211,ca,500,1400,0,risky,0.8350067840001429,rs,3,0.8559504130007554,1,"[(1, 0.0004902599994238699), (2, 0.37690919499982556), (3, 0.5689464480001334), (3, 0.8567757519995212)]",0.5858344546627208
solo,4,65,3,8,clockwise,clockwise,correct,0.5432372310006031,ca,500,700,10,sure,0.8965527769996697,rs,1,0.9949383040002431,4,"[(4, 0.000476029001220013), (3, 0.42008052399978624), (2, 0.563927364999472), (1, 0.74002724499951), (1, 0.9958194099999673)]",0.42234702593293433
solo,4,66,-3,32,anticlockwise,anticlockwise,correct,0.6720823899995594,ca,500,850,0,risky,0.8446129300009488,rs,5,1.0719222750012705,3,"[(3, 0.0004848319986194838), (4, 0.14499425100075314), (5, 0.2887228240015247), (5, 1.0728362600002583)]",0.5392955606434057
solo,4,67,3,32,clockwise,clockwise,correct,0.508256873999926,ac,500,1270,0,risky,0.9899707549993764,sr,2,0.5891732430009142,2,"[(2, 0.0004995609997422434), (2, 0.5901419809997606)]",0.5003050618125764
solo,4,68,3,16,clockwise,clockwise,correct,0.6665739910004049,ac,500,1040,-10,risky,0.774924364999606,sr,3,0.8450830959991436,2,"[(2, 0.0004877920000581071), (3, 0.28592567300074734), (3, 0.845967429000666)]",0.5514875376115181
solo,4,69,-3,64,anticlockwise,anticlockwise,correct,0.6132456840005034,ca,500,1040,-10,risky,0.8519397000000026,rs,2,0.5844363119995251,2,"[(2, 0.00047795699902053457), (2, 0.5853719560000172)]",0.41358125882553715
solo,4,70,3,64,anticlockwise,clockwise,wrong,0.6140161410003202,ca,500,770,-10,sure,1.0120023529998434,sr,2,1.2344155559985666,6,"[(6, 0.000503811999806203), (5, 0.5474104909990274), (4, 0.7233109549997607), (3, 0.8673561129999143), (2, 1.0111500679995515), (2, 1.2353186780001124)]",0.5424888059082558
solo,4,71,-3,8,anticlockwise,anticlockwise,correct,0.5161027949998243,ca,500,1270,10,risky,0.5663052380004956,sr,5,0.6142403510002623,5,"[(5, 0.0004911819996777922), (5, 0.6151505699999689)]",0.5754044001525103
solo,4,72,-3,16,anticlockwise,anticlockwise,correct,1.0084349820008356,ca,500,1400,0,risky,0.4624039120008092,sr,4,1.5226094410008955,5,"[(5, 0.0004863820013270015), (4, 1.219781428000715), (4, 1.5234471189996839)]",0.5959398383780893
solo,4,73,-3,64,clockwise,anticlockwise,wrong,0.47237116300129856,ac,500,550,10,sure,1.084699040000487,rs,1,1.2713989479998418,6,"[(6, 0.00048603100003674626), (5, 0.3126331899984507), (4, 0.47225319399876753), (3, 0.6483016989986936), (2, 0.8241731789985351), (1, 1.0642325579992757), (1, 1.2723096969984908)]",0.5982792051882062
solo,4,74,3,64,anticlockwise,clockwise,wrong,0.5083244859997649,ca,500,550,-10,sure,0.9113263109993568,sr,4,1.2166176959999575,5,"[(5, 0.0004890310010523535), (4, 0.44967174399971555), (3, 0.7694878490001429), (4, 1.0414234749987372), (4, 1.2173667909992218)]",0.4805607793638112
solo,4,75,-3,8,anticlockwise,anticlockwise,correct,0.8209534859997802,ac,500,1150,0,risky,0.9231418649997067,rs,4,0.8921770729994023,2,"[(2, 0.0004900120002275798), (3, 0.38132987299832166), (4, 0.5730896519999078), (4, 0.8930433459991036)]",0.5582393964538258
solo,4,76,3,16,clockwise,clockwise,correct,0.9872167769990483,ca,500,700,-10,sure,1.2109944760013605,rs,5,1.1041975660009484,2,"[(2, 0.0004818050001631491), (3, 0.5133748399985052), (4, 0.7051411279990134), (5, 0.8811907409999549), (5, 1.1050791679990652)]",0.5985313787664278
solo,4,77,-3,32,anticlockwise,anticlockwise,correct,1.0229310210015683,ca,500,700,10,sure,0.7812795080008073,sr,2,0.7713320660004683,1,"[(1, 0.0005060160001448821), (2, 0.45236519900026906), (2, 0.7722474510010215)]",0.40658427718464224
solo,4,78,3,32,anticlockwise,clockwise,wrong,0.8158989820003626,ac,500,850,-10,sure,0.7261346389987011,rs,2,0.9746829369996703,5,"[(5, 0.0005052959986642236), (4, 0.4315606039999693), (3, 0.6073959820005257), (2, 0.7835077100007766), (2, 0.9755222809999395)]",0.4010291587481506
solo,4,79,-3,16,anticlockwise,anticlockwise,correct,0.715488784999252,ca,500,770,-10,sure,0.7093366400004015,sr,3,0.8470514139989973,1,"[(1, 0.0006273880007938715), (2, 0.3039944399988599), (3, 0.5119431989987788), (3, 0.8479752909988747)]",0.5767050524222577
solo,4,80,3,8,clockwise,clockwise,correct,0.7379357969984994,ca,500,640,10,risky,0.9707737109984009,rs,6,1.0181279330008692,1,"[(1, 0.0005249259993433952), (2, 0.25117391200001293), (3, 0.41094137399886677), (4, 0.5870990280000115), (5, 0.714934755998911), (6, 0.8750270629989245), (6, 1.0188761549998162)]",0.5517575233922662
solo,4,81,3,8,clockwise,clockwise,correct,0.6841937030003464,ac,500,770,10,risky,0.6786726259997522,rs,4,0.801252110999485,2,"[(2, 0.0005166150003788061), (3, 0.30620457099939813), (4, 0.46615831599956437), (4, 0.8022221960000024)]",0.43594941208162563
solo,4,82,-3,64,anticlockwise,anticlockwise,correct,0.6614952580002864,ca,500,700,10,sure,0.7856182949999493,sr,2,1.0954925930000172,3,"[(3, 0.000492122000650852), (2, 0.9046472050013108), (2, 1.0963595550001628)]",0.5853573877153658
solo,4,83,-3,32,clockwise,anticlockwise,wrong,1.1841327300007833,ac,500,770,0,sure,0.6479192980004882,rs,3,0.8993109539987927,6,"[(6, 0.0005084529984742403), (5, 0.3886882480001077), (4, 0.5486801329989248), (3, 0.7085442199986574), (3, 0.9005829249999806)]",0.5786389543186348
solo,4,84,-3,16,anticlockwise,anticlockwise,correct,0.6302127990002191,ca,500,640,10,sure,0.8360238919995027,rs,4,1.0484546600000613,1,"[(1, 0.0005562149999605026), (2, 0.3452116850003222), (3, 0.5533553949990164), (4, 0.7453402369992546), (4, 1.0492542520005372)]",0.5265707262321105
solo,4,85,-3,8,anticlockwise,anticlockwise,correct,0.5347229540002445,ac,500,1540,-10,risky,0.4405599980000261,sr,3,1.0050499770004535,1,"[(1, 0.0004912420008622576), (2, 0.3819524710015685), (3, 0.7658422340009565), (3, 1.006025133001458)]",0.44596349063093166
solo,4,86,3,16,clockwise,clockwise,correct,0.6354565569999977,ca,500,850,0,risky,1.0963513450005848,rs,4,0.946431536000091,2,"[(2, 0.0005101469996589003), (3, 0.4031167840003036), (4, 0.7232217010005115), (4, 0.9471758300005604)]",0.5200048275130874
solo,4,87,3,64,clockwise,clockwise,correct,1.7773973790008313,ac,500,940,0,risky,0.7366940869997052,sr,3,0.8413757849993999,5,"[(5, 0.0005129910005052807), (4, 0.45808286600004067), (3, 0.6182520250004018), (3, 0.8421432150007604)]",0.5758792394594618
solo,4,88,3,32,anticlockwise,clockwise,wrong,1.1368020680001791,ac,500,550,0,sure,0.89036986300016,sr,2,1.5172582870000042,3,"[(3, 0.0004892409997410141), (2, 0.49395655099942815), (3, 0.7502132730005542), (4, 0.9421117050005705), (3, 1.166248903999076), (2, 1.3261789719999797), (2, 1.5179680090004695)]",0.4335253101267465
solo,4,89,3,32,anticlockwise,clockwise,wrong,0.7399539990001358,ac,500,1400,-10,risky,0.7493059659991559,rs,2,0.7097922640004981,2,"[(2, 0.000507645998368389), (2, 0.7104634080005781)]",0.5869628683832757
solo,4,90,-3,8,anticlockwise,anticlockwise,correct,0.5260810230010975,ac,500,640,10,sure,0.9268123519996152,sr,4,1.3436205509988213,4,"[(4, 0.0004835070012632059), (5, 0.2405490370001644), (4, 1.1687661439991643), (4, 1.3444109079991904)]",0.5495828449570084
solo,4,91,-3,16,anticlockwise,anticlockwise,correct,0.655667123000967,ac,500,1270,10,risky,0.7800422220007022,sr,3,0.7707294280007773,4,"[(4, 0.0004767240006913198), (3, 0.5318240670003433), (3, 0.7714292029995704)]",0.5297894287809748
solo,4,92,3,64,clockwise,clockwise,correct,1.0345859539993398,ac,500,1270,10,risky,0.7917451559987967,sr,2,1.0866471909994289,4,"[(4, 0.0005150950000825105), (3, 0.5756602849996852), (2, 0.8155746119991818), (2, 1.0875533830003405)]",0.515255289910112
solo,4,93,-3,32,anticlockwise,anticlockwise,correct,0.5351470680016064,ac,500,1150,10,risky,0.7283087960004195,rs,4,1.2184150560005946,2,"[(2, 0.0005101629994896939), (3, 0.45129875800012087), (4, 0.6912230910002108), (4, 1.2192859490005503)]",0.5658788562478636
solo,4,94,3,16,clockwise,clockwise,correct,0.5682668780009408,ac,500,1400,-10,risky,0.551595073999124,sr,3,1.5436702210008661,4,"[(4, 0.000489816000481369), (3, 0.45656892899933155), (3, 1.5443228259991884)]",0.4973010068025595
solo,4,95,3,8,clockwise,clockwise,correct,0.868482216999837,ca,500,1270,-10,risky,0.6962978709998424,rs,6,0.5947472210009437,4,"[(4, 0.0004909819999738829), (5, 0.22782997799913574), (6, 0.3876733699999022), (6, 0.5957171309983096)]",0.4231568123189896
solo,4,96,-3,64,clockwise,anticlockwise,wrong,0.9815594530009548,ac,500,940,-10,risky,0.9170314889997826,rs,2,1.1262506540006143,5,"[(5, 0.0004924429995298851), (4, 0.295228524999402), (3, 0.5191326280000794), (2, 0.8871489899993321), (2, 1.127065863000098)]",0.4104080778080652
solo,5,1,3,32,clockwise,clockwise,correct,0.510528737999266,ac,500,700,10,sure,3.2161604590000934,sr,4,1.1266452239997307,4,"[(4, 0.0003737030001502717), (4, 1.1278415389988368)]",0.5315100797700749
solo,5,2,-3,16,anticlockwise,anticlockwise,correct,0.8981416129990976,ca,500,770,0,risky,0.7093737779996445,sr,5,0.8305594459998247,5,"[(5, 0.000472657000500476), (5, 0.8313485029993899)]",0.44272908896528385
solo,5,3,-3,8,anticlockwise,anticlockwise,correct,0.7574739920000866,ca,500,1150,10,risky,0.7189218839994282,sr,6,2.4722580279994872,1,"[(1, 0.0004888840012426954), (2, 1.0492100669998763), (3, 1.2091703909991338), (4, 1.3212233959984587), (5, 1.4811374469991279), (6, 2.1531874829997832), (6, 2.473230267998588)]",0.4562592037828184
solo,5,4,3,16,clockwise,clockwise,correct,2.8894283029985672,ac,500,1150,-10,sure,1.5015647350010113,rs,4,1.0799895000000106,6,"[(6, 0.0004901470001641428), (5, 0.5211502500005736), (4, 0.745071278000978), (4, 1.0807734440004424)]",0.5625031085196187
solo,5,5,3,64,clockwise,clockwise,correct,1.3968410750003386,ca,500,850,-10,sure,1.1396093929997733,rs,2,1.3886138430007122,1,"[(1, 0.000488270999994711), (2, 1.0217324209988874), (2, 1.3895370099999127)]",0.4699156087850239
solo,5,6,-3,64,anticlockwise,anticlockwise,correct,1.135700413999075,ca,500,1040,-10,risky,1.0964435480000247,sr,4,0.754558532998999,2,"[(2, 0.0004849310007557506), (3, 0.32349777499985066), (4, 0.4674491469995701), (4, 0.7554836469989823)]",0.4234691505332113
solo,5,7,-3,32,anticlockwise,anticlockwise,correct,0.8463265989994397,ca,500,640,0,sure,1.5867617820003943,sr,3,0.985801716999049,1,"[(1, 0.0004799289999937173), (2, 0.5548741559996415), (3, 0.7787043299995275), (3, 0.9866488600000594)]",0.43282731764006555
solo,5,8,3,8,clockwise,clockwise,correct,0.940353044999938,ca,500,640,10,sure,1.7096307960000559,sr,4,2.191043486998751,5,"[(5, 0.0004943110016029095), (4, 1.6960882940002193), (4, 2.1918857309992745)]",0.4323093392472851
solo,5,9,3,8,clockwise,clockwise,correct,0.8902442290000181,ca,500,590,10,sure,0.8463921610000398,sr,2,1.1862386600005266,6,"[(6, 0.0006102229999669362), (5, 0.4193565919995308), (4, 0.6113342059998104), (3, 0.7872090590008156), (2, 0.9632577289994515), (2, 1.1871384950009087)]",0.5881237213844401
solo,5,10,3,64,anticlockwise,clockwise,wrong,0.9236023360008403,ac,500,1270,0,sure,1.3735508789995947,sr,1,1.181128083000658,4,"[(4, 0.0004928739999741083), (3, 0.36618705399996543), (2, 0.6541901370001142), (1, 0.9102442359999259), (1, 1.1820717629998398)]",0.44594076387737386
solo,5,11,3,32,clockwise,clockwise,correct,1.2672048690001247,ac,500,940,10,risky,0.6793393700008892,sr,3,1.4265834050002013,6,"[(6, 0.000492694000058691), (5, 0.6116030410012172), (4, 0.8036092220008868), (3, 1.0755447419996926), (3, 1.427506711001115)]",0.5434771566138668
