task,id,trial,ori_mean,ori_var,judge,answer,result,judge_rt,line_pos,payoff_sure,payoff_risky,payoff_jitter,choice,choice_rt,option_pos,rating,rating_rt,rating_init,rating_history,iti
solo,40,1,3,64,clockwise,clockwise,correct,1.1986215910001192,ac,500,1270,0,sure,1.4920105109995347,rs,2.0,3.3588117330000387,3,"[(3, 0.00036098000055062585), (2, 2.3199196580007992), (2, 3.3597842319995834)]",0.4424367797244344
solo,40,2,-3,8,anticlockwise,anticlockwise,correct,1.3947546349991171,ca,500,770,10,risky,1.3461972229997627,sr,5.0,2.8338995410013013,6,"[(6, 0.0005658780009980546), (5, 2.3709361759993044), (5, 2.8346733449998283)]",0.4095655077375297
solo,40,3,-3,16,anticlockwise,anticlockwise,correct,1.7812108699999953,ca,500,940,0,risky,1.909363000000667,sr,4.0,2.767380311999659,2,"[(2, 0.0004898120005236706), (3, 2.0164464229983423), (4, 2.1924464529984107), (4, 2.7683075579989236)]",0.5427901074277064
solo,40,4,-3,64,anticlockwise,anticlockwise,correct,1.2080213370009005,ac,500,770,-10,sure,1.1499191150014667,sr,1.0,3.6216368610002974,6,"[(6, 0.0004980350004188949), (5, 1.1267289700008405), (4, 1.2864919860003283), (3, 1.4946281539996562), (2, 1.6864864269991813), (1, 3.382735830000456), (1, 3.6225934859994595)]",0.4831470954458287
solo,40,5,3,16,clockwise,clockwise,correct,0.8000462119998701,ac,500,1040,-10,risky,0.9509841770013736,sr,5.0,2.9834089840005618,6,"[(6, 0.0005009609994885977), (5, 1.7043223319997196), (5, 2.9843957440007216)]",0.4092577903788975
solo,40,6,-3,32,anticlockwise,anticlockwise,correct,3.746798045000105,ca,500,640,0,sure,0.7562919179999881,sr,3.0,2.8592429179989267,4,"[(4, 0.0004774049994011875), (3, 2.108280055999785), (3, 2.8600518780003767)]",0.58407297286181
solo,40,7,3,32,clockwise,clockwise,correct,0.8785160799998266,ac,500,1150,10,risky,1.9537597700000333,rs,3.0,2.5059311489985703,6,"[(6, 0.0004922869993606582), (5, 1.4989922429995204), (4, 1.7549901679994946), (3, 2.0108188849990256), (3, 2.5067091149994667)]",0.5434896171706954
solo,40,8,3,8,clockwise,clockwise,correct,0.9373581419986294,ca,500,1540,10,risky,1.4345619830000942,rs,5.0,1.9433117949993175,4,"[(4, 0.0004955969998263754), (5, 1.5924492249996547), (5, 1.9440919720000238)]",0.5980462276039051
solo,40,9,-3,8,anticlockwise,anticlockwise,correct,0.9925952419998794,ca,500,1540,-10,risky,1.038641983999696,sr,4.0,3.802947898000639,2,"[(2, 0.0004802590010513086), (3, 3.0358861340009753), (4, 3.3881031350010744), (4, 3.803771315000631)]",0.49914320098251447
solo,40,10,3,64,clockwise,clockwise,correct,0.8894444959987595,ac,500,1150,0,sure,1.0527360100004444,rs,1.0,2.136360448999767,3,"[(3, 0.0005016639988753013), (2, 1.4494331810001313), (1, 1.6892356090011162), (1, 1.8491047299994534), (1, 2.1371492910002416)]",0.5016609955205084
solo,40,11,-3,64,clockwise,anticlockwise,wrong,0.9734186689984199,ca,500,1150,-10,sure,0.8131385199994838,rs,1.0,2.0665788280002744,3,"[(3, 0.0005159899992577266), (2, 1.5557575830007409), (1, 1.7954366590001882), (1, 2.067495150000468)]",0.40364621787194604
solo,40,12,-3,16,anticlockwise,anticlockwise,correct,0.9525575110001228,ac,500,700,10,sure,0.8885357470007875,rs,3.0,5.289645288999964,6,"[(6, 0.00047641499986639246), (5, 3.4024947329999122), (4, 3.9144516180003848), (3, 4.5065160900012415), (3, 5.290356217001317)]",0.474789208571436
solo,40,13,3,32,clockwise,clockwise,correct,0.9605336519998673,ca,500,640,-10,sure,1.1366450679997797,sr,4.0,3.4489571579997573,6,"[(6, 0.0004839569992327597), (5, 2.7139043919996766), (4, 3.0019107139996777), (4, 3.44989037599953)]",0.4329208523804026
solo,40,14,3,8,clockwise,clockwise,correct,0.8992675079989567,ac,500,940,0,risky,1.2380178820003493,sr,6.0,3.129874963000475,5,"[(5, 0.0004886580009042518), (6, 2.5710305930006143), (6, 3.130575139000939)]",0.5648488897402723
solo,40,15,-3,32,anticlockwise,anticlockwise,correct,1.013716301000386,ca,500,1270,10,risky,1.011921422999876,sr,5.0,3.6815819589992316,2,"[(2, 0.0004697460008173948), (3, 2.8345917830010876), (4, 2.9943702810014656), (5, 3.138360332000957), (5, 3.6825974769999448)]",0.46096682882632767
solo,40,16,3,16,clockwise,clockwise,correct,0.9327022249999573,ca,500,850,10,sure,1.0139589849986805,sr,4.0,2.867895259998477,2,"[(2, 0.0005006600003980566), (3, 2.3408441039991885), (4, 2.5166706439995323), (4, 2.868833692999033)]",0.516758692427567
solo,40,17,3,8,clockwise,clockwise,correct,0.6930068799993023,ac,500,700,-10,risky,1.0070141329997568,sr,5.0,3.421496560000378,3,"[(3, 0.0004925880002701888), (4, 2.510471719000634), (5, 2.702305824001087), (5, 3.422408288000952)]",0.5862354126162399
solo,40,18,-3,16,anticlockwise,anticlockwise,correct,0.9554560500000662,ca,500,770,10,sure,1.1000706989998434,rs,4.0,1.2065188880005735,4,"[(4, 0.0004926680012431461), (4, 1.2075343950000388)]",0.4989523099829077
solo,40,19,-3,64,clockwise,anticlockwise,wrong,2.176145313998859,ac,500,700,10,sure,1.023852832000557,rs,1.0,2.348304052999083,4,"[(4, 0.0004928560010739602), (3, 1.2293796929989185), (2, 1.3572869950003223), (1, 1.9331453909999254), (1, 2.349290084999666)]",0.43885787492362127
solo,40,20,-3,32,anticlockwise,anticlockwise,correct,0.6910271300002933,ac,500,1040,0,risky,1.4376914759995998,rs,3.0,2.6979371500001434,5,"[(5, 0.0004841999998461688), (4, 1.5630285719998938), (3, 2.2187832270010404), (3, 2.6986976280004455)]",0.551491982048877
solo,40,21,3,64,clockwise,clockwise,correct,1.255499882001459,ca,500,640,0,sure,0.6828252720006276,sr,2.0,1.5895081240014406,2,"[(2, 0.0004784779994224664), (2, 1.5902746169995226)]",0.436213097173754
solo,40,22,-3,8,anticlockwise,anticlockwise,correct,0.8417346800015366,ca,500,1270,0,risky,1.0702551459999086,sr,5.0,1.4179952060003416,5,"[(5, 0.0004959310008416651), (5, 1.4189262059990142)]",0.5784946876330426
solo,40,23,3,16,anticlockwise,clockwise,wrong,0.34435765700072807,ac,500,700,10,sure,1.0897208689984836,rs,2.0,5.084380542999497,5,"[(5, 0.0004992369995306944), (4, 2.9573512290007784), (3, 3.1172661960008554), (2, 3.277180289000171), (2, 5.085179060000883)]",0.47789878106993106
solo,40,24,3,32,clockwise,clockwise,correct,2.3102243930006807,ca,500,1540,-10,sure,1.4888907309996284,sr,3.0,3.930590948999452,6,"[(6, 0.000500797999848146), (5, 2.827389571999447), (4, 3.06762807800078), (3, 3.2434560250003415), (3, 3.931569276999653)]",0.544686588134841
solo,40,25,3,8,clockwise,clockwise,correct,0.7733036529989477,ac,500,640,0,risky,1.1643001719985477,rs,6.0,1.4597237870002573,6,"[(6, 0.00048747100117907394), (6, 1.460457088000112)]",0.4911275144327541
solo,40,26,-3,32,anticlockwise,anticlockwise,correct,0.8935473380006442,ca,500,770,0,risky,1.0396680619996914,rs,4.0,2.7636870610003825,2,"[(2, 0.0004854990002058912), (3, 1.8527914710011828), (4, 2.108627202000207), (4, 2.7646053879998362)]",0.5952848626360047
solo,40,27,-3,8,anticlockwise,anticlockwise,correct,0.7593472880016634,ac,500,1150,0,risky,0.8152718450000975,rs,6.0,0.7400852369992208,6,"[(6, 0.00046767599997110665), (6, 0.7411136379996606)]",0.4293578596290097
solo,40,28,-3,16,anticlockwise,anticlockwise,correct,0.7971491210009845,ac,500,1150,10,risky,1.0112568679996912,sr,5.0,2.000900618000742,3,"[(3, 0.0005118469998706132), (4, 1.2339282470002217), (5, 1.5539257839991478), (5, 2.0016829039996082)]",0.5135100908296182
solo,40,29,3,32,anticlockwise,clockwise,wrong,0.7566943780002475,ac,500,850,0,sure,0.8445015589986724,rs,2.0,0.9122487519998685,2,"[(2, 0.00047667000035289675), (2, 0.9133149219996994)]",0.5955359680363337
solo,40,30,-3,64,anticlockwise,anticlockwise,correct,1.3775899140000547,ac,500,1270,10,sure,0.6569019019989355,rs,2.0,3.755946313000095,5,"[(5, 0.0004894739995506825), (4, 1.3249778219997097), (3, 1.5648302800000238), (2, 1.8049747629993362), (2, 3.7567725899989455)]",0.5283727069280206
solo,40,31,3,64,clockwise,clockwise,correct,1.2300310930004343,ca,500,590,0,sure,0.7069262779987184,sr,1.0,2.5245425590001105,6,"[(6, 0.0005462540011649253), (5, 1.053515053999945), (4, 1.2295921129989438), (3, 1.7413123120004457), (2, 1.8853880219994608), (1, 2.061686279999776), (1, 2.5255369919996156)]",0.48805424682466586
solo,40,32,3,16,clockwise,clockwise,correct,0.8112494650013105,ac,500,940,-10,risky,1.6172438929988857,rs,4.0,1.0786958130011044,5,"[(5, 0.0004892470005870564), (4, 0.8556798190002155), (4, 1.0796373249995668)]",0.5909754308661525
solo,40,33,-3,16,anticlockwise,anticlockwise,correct,0.7891594369993982,ac,500,1400,0,risky,0.8112599230007618,sr,4.0,2.0008110720009427,3,"[(3, 0.0004901299998891773), (4, 1.6979124150002463), (4, 2.0017145649999293)]",0.4348980666864834
solo,40,34,3,64,anticlockwise,clockwise,wrong,4.180299036999713,ac,500,770,-10,sure,0.7558535920015856,sr,1.0,1.2756110909995186,1,"[(1, 0.00048052999954961706), (1, 0.8285992900000565), (1, 1.2765875820005022)]",0.5926850624194112
solo,40,35,3,8,clockwise,clockwise,correct,0.767634783000176,ac,500,590,-10,sure,3.3356994120003947,sr,5.0,1.4329587210013415,5,"[(5, 0.00048041700028989), (5, 1.4339897360005125)]",0.46814490394998215
solo,40,36,-3,64,clockwise,anticlockwise,wrong,1.4813887139989674,ac,500,1040,10,risky,1.876814409999497,sr,2.0,2.5277438849989267,5,"[(5, 0.0006570780005858978), (4, 1.29679792800016), (3, 1.5845548950001103), (2, 1.984700442000758), (2, 2.5286081169997487)]",0.4349516052032675
solo,40,37,3,32,clockwise,clockwise,correct,0.6775855230007437,ac,500,1400,0,sure,0.880283442000291,sr,2.0,2.5153655570011324,5,"[(5, 0.00048506399980396964), (4, 1.300435507999282), (3, 1.6364629859999695), (2, 1.956304953999279), (2, 2.5160678579995874)]",0.4093271375634931
solo,40,38,3,16,clockwise,clockwise,correct,0.802791440000874,ac,500,1540,-10,risky,0.9707430689995817,rs,4.0,1.3372997009992105,6,"[(6, 0.0004936590012221131), (5, 0.8423713199990743), (4, 1.0822718990002613), (4, 1.3381816290002462)]",0.5642894850950245
solo,40,39,-3,8,anticlockwise,anticlockwise,correct,0.9368108100006793,ca,500,1040,0,risky,0.7453931470008683,sr,5.0,2.1294702399991365,1,"[(1, 0.000495972000862821), (2, 1.0104783440001484), (3, 1.2503107379998255), (4, 1.490325679000307), (5, 1.6662956199998007), (5, 2.130312856999808)]",0.5355634771583513
solo,40,40,-3,32,anticlockwise,anticlockwise,correct,0.962753772000724,ac,500,850,0,sure,0.9309575790011877,rs,3.0,0.7398655930010136,3,"[(3, 0.0005182060012884904), (3, 0.740701993001494)]",0.5094057519888169
solo,40,41,3,16,clockwise,clockwise,correct,1.4014548840004863,ca,500,1270,-10,sure,1.7200865640006668,sr,3.0,0.7608742560005339,3,"[(3, 0.0004721139994217083), (3, 0.7615846280004916)]",0.5759326668078378
solo,40,42,-3,64,anticlockwise,anticlockwise,correct,0.8504793280008016,ca,500,1400,-10,sure,0.823871713000699,sr,3.0,2.1083007550005277,6,"[(6, 0.0006058199996914482), (5, 0.909419560999595), (4, 1.1973301999987598), (3, 1.4693771069996728), (3, 2.109270654998909)]",0.4504448459380507
solo,40,43,-3,32,anticlockwise,anticlockwise,correct,2.095298174999698,ca,500,1540,-10,sure,0.7379525889991783,rs,2.0,2.154311599000721,6,"[(6, 0.0004878569998254534), (5, 0.6991359389994614), (4, 0.939202359999399), (3, 1.7232982059995265), (2, 1.947248718000992), (2, 2.155271363999418)]",0.49018429027479926
solo,40,44,-3,8,anticlockwise,anticlockwise,correct,1.036517451000691,ca,500,850,-10,risky,1.000881889000084,sr,5.0,1.2553043640000396,3,"[(3, 0.0005062139989604475), (4, 0.6003242589995352), (5, 0.9043145089999598), (5, 1.2560404230007407)]",0.47422365868203276
solo,40,45,3,64,anticlockwise,clockwise,wrong,2.1924840699994093,ca,500,1540,-10,sure,1.2466847119994782,sr,1.0,1.8279746570005955,5,"[(5, 0.000475935001304606), (4, 0.4528940510008397), (3, 0.7247366190003959), (2, 0.9487826879994827), (1, 1.5731194260006305), (1, 1.8286939400004485)]",0.40300325435597184
solo,40,46,-3,16,anticlockwise,anticlockwise,correct,0.8852006979996077,ca,500,550,-10,sure,1.6229319609992672,rs,4.0,1.628353887999765,5,"[(5, 0.0004723670008388581), (4, 0.7014150680006423), (4, 1.629303728001105)]",0.4112962702047394
solo,40,47,3,8,clockwise,clockwise,correct,1.1544289280009252,ca,500,770,0,risky,0.9226446140000917,sr,5.0,1.2112604579997424,3,"[(3, 0.00047165300020424183), (4, 0.5083283020012459), (5, 0.8602209850014333), (5, 1.2121218490010506)]",0.4860728969881521
solo,40,48,3,32,anticlockwise,clockwise,wrong,0.9128268829990702,ac,500,1270,10,sure,1.026928721999866,rs,3.0,1.0087311219995172,2,"[(2, 0.0004801089999091346), (3, 0.6578380730006756), (3, 1.0097497460010345)]",0.512141268690684
solo,40,49,3,16,clockwise,clockwise,correct,0.9448884470002668,ca,500,640,0,sure,0.7646927389996563,rs,5.0,2.1634320150005806,3,"[(3, 0.000549300999409752), (4, 1.540443834999678), (5, 1.7323986409992358), (5, 2.1642471499999374)]",0.5336926879078667
solo,40,50,3,8,clockwise,clockwise,correct,0.8492382200001884,ca,500,1150,0,risky,0.934775522999189,rs,5.0,0.9830958599995938,5,"[(5, 0.0004954109990649158), (5, 0.9840832139998383)]",0.5646399284617931
solo,40,51,-3,8,anticlockwise,anticlockwise,correct,0.8059647979989677,ca,500,590,-10,risky,2.795527790000051,rs,4.0,1.6823686499992618,4,"[(4, 0.0004905999994662125), (4, 1.683241826000085)]",0.4689077401395978
solo,40,52,3,64,anticlockwise,clockwise,wrong,1.4971460239994485,ac,500,1400,0,sure,0.7398773910008458,rs,2.0,1.5165867159994377,3,"[(3, 0.0004989909994037589), (2, 1.149530753000363), (2, 1.517360619000101)]",0.4053156125221197
solo,40,53,-3,64,anticlockwise,anticlockwise,correct,0.8059834300001967,ac,500,1540,-10,sure,0.652195758999369,rs,1.0,1.656323404999057,4,"[(4, 0.0004920850005873945), (3, 0.7613593099995342), (2, 1.0652093600001535), (1, 1.337218614999074), (1, 1.6571619539990934)]",0.5066867519847564
solo,40,54,-3,16,anticlockwise,anticlockwise,correct,0.7194930040004692,ac,500,1040,-10,risky,1.000916506998692,sr,5.0,1.79908573099965,2,"[(2, 0.0004820400008611614), (3, 0.6960748700003023), (4, 1.0641039940001065), (5, 1.4639932949994545), (5, 1.799951114000578)]",0.437689666521798
solo,40,55,3,32,clockwise,clockwise,correct,1.1583891660011432,ac,500,940,10,sure,2.6858783089992357,rs,4.0,1.5608483039995917,2,"[(2, 0.00048265700024785474), (3, 0.9219701040001382), (4, 1.1617965779987571), (4, 1.5617405789998884)]",0.5218854373995743
solo,40,56,-3,32,anticlockwise,anticlockwise,correct,1.2807105890005914,ca,500,1400,10,sure,0.6279484320002666,rs,4.0,0.5933629289993405,4,"[(4, 0.0004896189984719967), (4, 0.5943652360001579)]",0.5087008642972513
solo,40,57,3,64,clockwise,clockwise,correct,2.24225779399967,ca,500,1040,-10,sure,0.8152787260005425,sr,1.0,2.0051968799998576,5,"[(5, 0.0004891820008197101), (4, 0.43829636400005256), (3, 0.66219377500056), (2, 0.8864642429998639), (1, 1.302096542000072), (1, 2.0060789350009145)]",0.44061829212584713
solo,40,58,3,16,clockwise,clockwise,correct,0.9566120719991886,ca,500,590,10,sure,1.61242363600104,sr,5.0,1.937540158000047,3,"[(3, 0.000499003999721026), (4, 0.5624451930016221), (5, 1.730479510000805), (5, 1.9383620450007584)]",0.48509987765009643
solo,40,59,3,8,clockwise,clockwise,correct,0.8797551999996358,ca,500,1400,0,risky,0.8033917020002264,sr,6.0,1.1287789790003444,5,"[(5, 0.0005088649995741434), (6, 0.8578464469992468), (6, 1.1294835099997727)]",0.4108966453710699
solo,40,60,-3,8,anticlockwise,anticlockwise,correct,1.3475510340012988,ca,500,700,0,risky,1.5397136129995488,sr,5.0,1.0119021619993873,4,"[(4, 0.0005104880001454148), (5, 0.7729302259995166), (5, 1.0127538710003137)]",0.45489417108577396
solo,40,61,-3,64,clockwise,anticlockwise,wrong,1.2310647249996691,ac,500,940,-10,sure,0.7728393070010497,sr,2.0,3.6190841240004374,6,"[(6, 0.0005131679990881821), (5, 0.6601308009994682), (4, 0.9159851429994887), (3, 1.204032699999516), (2, 1.5880555339990678), (2, 3.619909414999711)]",0.5134499784441183
solo,40,62,-3,32,anticlockwise,anticlockwise,correct,1.657216456000242,ca,500,940,-10,sure,0.9252184800006944,rs,3.0,1.7579233060005208,5,"[(5, 0.0005122570000821725), (4, 0.6868708989986771), (3, 1.598669314998915), (3, 1.758692555999005)]",0.49634513872448227
solo,40,63,-3,16,anticlockwise,anticlockwise,correct,0.7223001140009728,ac,500,1270,0,risky,0.8762294839998503,rs,5.0,0.5264394989990251,5,"[(5, 0.0005179430008865893), (5, 0.52724433900039)]",0.40779018245462123
solo,40,64,3,32,clockwise,clockwise,correct,0.8927577359991119,ac,500,550,-10,sure,1.376106723000703,rs,4.0,0.814271061000909,4,"[(4, 0.0005170759995962726), (4, 0.8150993900017056)]",0.5374789233245584
solo,40,65,-3,64,anticlockwise,anticlockwise,correct,1.2508310680004797,ac,500,640,10,sure,1.1117299019988423,sr,2.0,1.0725026870004513,2,"[(2, 0.0004923400010738987), (2, 1.0734386500007531)]",0.550659665594084
solo,40,66,-3,8,anticlockwise,anticlockwise,correct,0.777884761999303,ac,500,1400,10,risky,0.8663751750009396,sr,6.0,1.749062144999698,3,"[(3, 0.0004986050007573795), (4, 0.6781639979999454), (5, 1.1578471209995769), (6, 1.4459719380010938), (6, 1.749979620999511)]",0.5627235884817839
solo,40,67,-3,32,anticlockwise,anticlockwise,correct,2.7241613440000947,ca,500,590,10,sure,1.149474428000758,rs,2.0,1.4295841999992263,4,"[(4, 0.0004668729998229537), (3, 0.6466219829999318), (2, 0.9505071399998997), (2, 1.430331985000521)]",0.5723154839736654
solo,40,68,3,64,clockwise,clockwise,correct,2.64053383800092,ca,500,940,10,sure,1.2298281349994795,sr,2.0,1.1864981060007267,1,"[(1, 0.0004994209994038101), (2, 0.9475156099997548), (2, 1.1873709829997097)]",0.5676338669926269
solo,40,69,3,32,clockwise,clockwise,correct,1.7406026579992613,ac,500,590,10,sure,0.7982257519997802,sr,3.0,1.4283399280011508,1,"[(1, 0.0004907019992970163), (2, 0.8054089960005513), (3, 1.1093793399995775), (3, 1.4292811619998247)]",0.41249552240773724
solo,40,70,-3,16,anticlockwise,anticlockwise,correct,1.6183844710012636,ac,500,850,-10,sure,1.0166343800010509,sr,4.0,1.237644733999332,5,"[(5, 0.0004791120009031147), (4, 1.0465124919992377), (4, 1.2385883389997616)]",0.44739267034399877
solo,40,71,3,8,clockwise,clockwise,correct,1.5994318299999577,ac,500,1270,10,risky,1.5906443019994185,rs,5.0,4.476080248001381,2,"[(2, 0.00047991000064939726), (3, 1.3891042670002207), (4, 1.5810684850002872), (5, 1.773031187000015), (5, 4.4770927320005285)]",0.4113602270148658
solo,40,72,3,16,clockwise,clockwise,correct,0.8810736830000678,ca,500,550,-10,risky,2.501656083000853,rs,5.0,2.9660026370002015,6,"[(6, 0.0004904249999526655), (5, 0.5989905790011107), (4, 1.2391893210005946), (5, 2.6950746799993794), (5, 2.9668833859996084)]",0.47116963338226714
solo,40,73,3,16,clockwise,clockwise,correct,0.8531568280013744,ca,500,770,10,risky,0.8089192999996158,rs,5.0,1.3098724970004696,5,"[(5, 0.0004962069997418439), (5, 1.3108574979996774)]",0.5533534319431739
solo,40,74,3,32,clockwise,clockwise,correct,1.761721110999133,ac,500,770,0,sure,0.9941738600009558,sr,4.0,1.0566529009993246,6,"[(6, 0.0005044030003773514), (5, 0.44947292799952265), (4, 0.7857039659993461), (4, 1.0573942819992226)]",0.47612100003673413
solo,40,75,3,8,clockwise,clockwise,correct,0.8604682029999822,ca,500,550,10,risky,1.424434407001172,sr,5.0,0.8622973689998616,5,"[(5, 0.0004891739990853239), (5, 0.8632950139999593)]",0.5022277005096473
solo,40,76,-3,64,anticlockwise,anticlockwise,correct,1.9819255729998986,ac,500,850,10,sure,0.9644054199998209,sr,1.0,0.8687307950003742,1,"[(1, 0.0004879769985564053), (1, 0.8698729360003199)]",0.5626248814684625
solo,40,77,-3,32,anticlockwise,anticlockwise,correct,1.132861509000577,ca,500,700,10,sure,0.6780202810004994,sr,3.0,1.4256535459990118,1,"[(1, 0.0005970900001557311), (2, 0.6266485439991811), (3, 0.882596747000207), (3, 1.4265477560002182)]",0.40645411856895375
solo,40,78,-3,16,anticlockwise,anticlockwise,correct,1.6141980439988401,ac,500,640,0,sure,0.7079558360001101,rs,3.0,0.9898144879989559,4,"[(4, 0.0004967039985785959), (3, 0.7991860260008252), (3, 0.9910136270009389)]",0.5199732468030955
solo,40,79,3,64,clockwise,clockwise,correct,0.9103086369996163,ac,500,700,0,sure,0.8487990160010668,sr,4.0,0.8853370209999412,4,"[(4, 0.0004854760009038728), (4, 0.8862670449998404)]",0.4591378392617017
solo,40,80,-3,8,anticlockwise,anticlockwise,correct,0.9836186290012847,ca,500,940,0,risky,1.751269422000405,rs,5.0,1.399569834000431,3,"[(3, 0.0004948339992552064), (4, 0.8564850990005652), (5, 1.160433782999462), (5, 1.400428995000766)]",0.5231998197865091
solo,40,81,3,16,clockwise,clockwise,correct,0.8226583039995603,ca,500,1150,10,sure,1.18009827700007,sr,3.0,1.2992293480001535,6,"[(6, 0.0004912389995297417), (5, 0.4841200729988486), (4, 0.6760729559991887), (3, 0.980174847998569), (3, 1.3000237739997829)]",0.47280611941661826
solo,40,82,-3,32,anticlockwise,anticlockwise,correct,1.1279508990010072,ac,500,550,0,sure,1.1695245580012852,rs,2.0,2.3123246870000003,6,"[(6, 0.0005009429987694602), (5, 0.47327343500001007), (4, 0.7132122490002075), (3, 0.9692170500002248), (2, 1.2572214709998661), (2, 2.3131812030005676)]",0.4479801609093878
solo,40,83,3,64,anticlockwise,clockwise,wrong,0.7873697619997984,ac,500,850,10,sure,1.5941805670008762,sr,3.0,7.121204476999992,3,"[(3, 0.0005379899994295556), (3, 7.1221920769985445)]",0.4810189004825556
solo,40,84,-3,8,anticlockwise,anticlockwise,correct,0.9430279549997067,ca,500,550,10,risky,1.3596205190006003,sr,5.0,1.1351084520010772,5,"[(5, 0.0004943240001011873), (5, 1.1359387259999494)]",0.4201468209869882
solo,40,85,3,8,clockwise,clockwise,correct,1.9936554500000057,ca,500,850,-10,risky,0.8317939400003524,rs,4.0,1.0122011690000363,5,"[(5, 0.0004812160004803445), (4, 0.5172648349998781), (4, 1.0130827280008816)]",0.4892880767257877
solo,40,86,-3,64,clockwise,anticlockwise,wrong,1.0090761800001928,ac,500,550,10,sure,0.7661319059989182,rs,1.0,1.3822204199987027,1,"[(1, 0.0004960530004609609), (1, 1.3831897439995373)]",0.5727621433858419
solo,40,87,-3,16,clockwise,anticlockwise,wrong,1.5076969710007688,ca,500,1540,10,sure,1.3903034840004693,sr,3.0,1.6593091930008086,3,"[(3, 0.0005056050013081403), (3, 1.6601289690006524)]",0.5455303491495724
solo,40,88,3,32,clockwise,clockwise,correct,1.91637455000091,ac,500,700,0,sure,0.6789288429990847,sr,3.0,2.7066327839984297,2,"[(2, 0.0005329899995558662), (3, 2.307501356001012), (3, 2.707540027000505)]",0.5948988135402657
solo,40,89,-3,32,anticlockwise,anticlockwise,correct,1.1196358840006724,ac,500,1150,10,risky,2.297830397001235,rs,3.0,1.1876704399983282,4,"[(4, 0.00047941099910531193), (3, 0.6927130900003249), (3, 1.1884754650000104)]",0.4072481387736273
solo,40,90,-3,16,anticlockwise,anticlockwise,correct,0.7973169350007083,ac,500,590,-10,sure,1.123974507998355,sr,4.0,1.6443254309997428,3,"[(3, 0.0005191489999560872), (4, 1.149165898999854), (4, 1.6450811089998751)]",0.4515005456832418
solo,40,91,-3,8,anticlockwise,anticlockwise,correct,0.9107960239998647,ca,500,640,-10,risky,1.3136458259996289,sr,5.0,1.0419331019984384,4,"[(4, 0.0005299170006765053), (5, 0.6268426259994158), (5, 1.0428033779990074)]",0.571297966870467
solo,40,92,-3,64,anticlockwise,anticlockwise,correct,2.576085847000286,ca,500,590,-10,sure,0.7836715060002462,sr,2.0,1.44624488899899,1,"[(1, 0.0005200760006118799), (2, 1.1592087660010293), (2, 1.4470272480011772)]",0.48978090016934317
solo,40,93,3,64,anticlockwise,clockwise,wrong,2.8202512110001408,ac,500,550,0,sure,0.9540103260005708,rs,1.0,4.873701297001389,6,"[(6, 0.0005025829996156972), (5, 0.7464974409995193), (4, 1.0667320350003138), (3, 1.4185486200003652), (2, 2.218739739000739), (1, 2.4265758199999254), (1, 4.8745271940006205)]",0.4919733790517304
solo,40,94,3,32,anticlockwise,clockwise,wrong,1.2486316220001754,ac,500,1040,10,sure,1.2693815869988612,sr,3.0,1.7687482589990395,4,"[(4, 0.00047375800022564363), (3, 0.8097693210002035), (3, 1.7696809339995525)]",0.434065257183077
solo,40,95,3,8,clockwise,clockwise,correct,0.9521821439993801,ca,500,1040,-10,risky,0.9210558909999236,sr,6.0,1.530607576998591,2,"[(2, 0.0004892049983027391), (3, 0.6357345850010461), (4, 0.7954815900011454), (5, 1.0196418460000132), (6, 1.2274798240014206), (6, 1.5314330480014178)]",0.5005611023524784
solo,40,96,3,16,clockwise,clockwise,correct,0.8525452379999479,ac,500,1400,0,risky,1.0649549289992137,sr,5.0,3.5077768959999958,2,"[(2, 0.0004911199994239723), (1, 0.32481041200117033), (2, 0.7087863910001033), (3, 0.9166744499998458), (4, 1.2045707810011663), (5, 3.1247388230003708), (5, 3.5088216830008605)]",0.4856775264227492
