task,id,trial,ori_mean,ori_var,judge,answer,result,judge_rt,line_pos,payoff_sure,payoff_risky,payoff_jitter,choice,choice_rt,option_pos,rating,rating_rt,rating_init,rating_history,iti
solo,51,1,-3,64,anticlockwise,anticlockwise,correct,1.9028783859976102,ca,500,700,0,sure,1.2901131809994695,sr,2.0,2.028198883999721,6,"[(6, 0.0003559669967216905), (5, 0.8772810279988335), (4, 1.0372033569983614), (3, 1.213163235999673), (2, 1.4533188929999596), (2, 2.028955087000213)]",0.5949032071193767
solo,51,2,-3,8,anticlockwise,anticlockwise,correct,1.168455470000481,ca,500,770,0,risky,0.9842952170001809,sr,5.0,1.7514908329976606,3,"[(3, 0.0004811409999092575), (4, 0.744444650998048), (5, 0.9364333259982232), (5, 1.7523511469989899)]",0.5576191327260861
solo,51,3,3,32,anticlockwise,clockwise,wrong,1.8284028669986583,ca,500,850,10,sure,0.9462793159982539,sr,4.0,1.298556154997641,1,"[(1, 0.0004925529974570964), (2, 0.5476122610016319), (3, 0.7875597370002652), (4, 0.9955370480020065), (4, 1.299437356999988)]",0.596140834250297
solo,51,4,-3,16,anticlockwise,anticlockwise,correct,2.450034051998955,ac,500,940,10,risky,1.494626273000904,rs,5.0,1.039830030000303,6,"[(6, 0.0004731820008601062), (5, 0.6407967289997032), (5, 1.0408505339983094)]",0.5806885658419794
solo,51,5,-3,32,anticlockwise,anticlockwise,correct,2.1376622579991817,ac,500,550,-10,sure,0.7791877060008119,rs,2.0,1.5542473080022319,1,"[(1, 0.0005129820019647013), (1, 0.7551407760001894), (2, 1.0911017329999595), (2, 1.5551659890006704)]",0.5972199354506711
solo,51,6,3,16,clockwise,clockwise,correct,1.4189774279984704,ca,500,1400,10,sure,1.6408436220008298,sr,3.0,2.365941231000761,3,"[(3, 0.0005015300012018997), (3, 2.3667610849988705)]",0.5091634596185551
solo,51,7,3,8,clockwise,clockwise,correct,1.239811022001959,ac,500,1150,-10,risky,1.181654192001588,rs,4.0,2.2760543769982178,2,"[(2, 0.00048399499792139977), (3, 0.821090743997047), (4, 1.6209869499980414), (4, 2.2769231279999076)]",0.4601882146281661
solo,51,8,3,64,anticlockwise,clockwise,wrong,1.8600447509998048,ac,500,850,10,sure,1.0240329540029052,sr,1.0,1.6450464709996595,5,"[(5, 0.0004828909986827057), (4, 0.7500947499975155), (3, 0.9418293029993947), (2, 1.1178155309971771), (1, 1.3578361539985053), (1, 1.6457721089973347)]",0.419164850592516
solo,51,9,-3,64,clockwise,anticlockwise,wrong,1.6785540630007745,ac,500,1040,-10,sure,1.0571456659999967,sr,2.0,1.2299164329997438,2,"[(2, 0.0004806200013263151), (3, 0.286782459999813), (2, 0.7508487839986628), (2, 1.2306055529988953)]",0.596289492439994
solo,51,10,3,8,clockwise,clockwise,correct,0.8066509769996628,ac,500,770,10,risky,1.148692269998719,rs,6.0,0.7416162830013491,6,"[(6, 0.00048271400009980425), (6, 0.34260460099903867), (6, 0.7424745989992516)]",0.4264521151076611
solo,51,11,-3,8,anticlockwise,anticlockwise,correct,0.8632233899988933,ca,500,1540,-10,risky,0.8988583860009385,sr,5.0,1.0286263540001528,3,"[(3, 0.0004827490010939073), (4, 0.5176586130000942), (5, 0.7095883809997758), (5, 1.0295213299978059)]",0.48557808880958336
solo,51,12,3,16,clockwise,clockwise,correct,2.2937442180009384,ac,500,850,10,sure,0.9284314139986236,rs,4.0,1.4568963090023317,3,"[(3, 0.00048070199773064815), (4, 0.817951938999613), (4, 1.4577681379996648)]",0.4315496899141008
solo,51,13,3,32,anticlockwise,clockwise,wrong,1.9024935269990237,ca,500,590,-10,sure,1.9769813399980194,rs,3.0,0.9921145869993779,4,"[(4, 0.00055337500089081), (3, 0.5771677529992303), (3, 0.9929786669999885)]",0.48640431211241286
solo,51,14,-3,16,clockwise,anticlockwise,wrong,1.7454185820024577,ac,500,1040,0,risky,1.9698768779999227,sr,5.0,1.6576360639992345,3,"[(3, 0.0004954670002916828), (4, 0.5704839240024739), (5, 1.2746169279998867), (5, 1.6585358360025566)]",0.43665476295496924
solo,51,15,-3,32,anticlockwise,anticlockwise,correct,1.7265472859980946,ac,500,1540,-10,sure,0.9276838270016015,sr,3.0,1.3770112140009587,5,"[(5, 0.0005049239989602938), (4, 0.6101955509984691), (3, 0.9299153629981447), (3, 1.3778740060006385)]",0.4830573056314417
solo,51,16,3,64,anticlockwise,clockwise,wrong,2.0446501699989312,ca,500,700,-10,sure,1.4898594329970365,sr,1.0,1.7886610140012635,6,"[(6, 0.0004868659998464864), (5, 0.6697294139994483), (4, 0.8936142949969508), (3, 1.0696297849972325), (2, 1.277649190997181), (1, 1.5016129369978444), (1, 1.789555034996738)]",0.583128952795785
solo,51,17,3,64,clockwise,clockwise,correct,2.8799788340002124,ca,500,770,-10,sure,1.0921051029981754,sr,2.0,1.7260512229986489,4,"[(4, 0.00047740999798406847), (3, 1.0231091679997917), (2, 1.3109848530002637), (2, 1.7267935650015716)]",0.40221278355025153
solo,51,18,-3,32,clockwise,anticlockwise,wrong,0.9435802009975305,ac,500,850,10,sure,0.7994985369987262,sr,3.0,1.9583616290001373,6,"[(6, 0.0005145920003997162), (5, 0.5511798080005974), (4, 0.8072792480015778), (3, 0.9993538140006422), (3, 1.9593605500012927)]",0.5208785232476094
solo,51,19,3,16,clockwise,clockwise,correct,1.7874939760004054,ca,500,1040,10,sure,1.0828086820001772,sr,4.0,0.9818522080022376,5,"[(5, 0.0004823659983230755), (4, 0.5349570630023663), (4, 0.9828808230013237)]",0.5874688034986335
solo,51,20,-3,16,anticlockwise,anticlockwise,correct,1.7003462270004093,ca,500,850,0,sure,1.254783034997672,rs,3.0,2.059231250001176,2,"[(2, 0.0004892300021310803), (3, 1.7722969419992296), (3, 2.060137788997963)]",0.5179855127466654
solo,51,21,3,8,clockwise,clockwise,correct,0.9592379640016588,ac,500,590,0,risky,1.1200159510008234,sr,6.0,1.4330354029989394,2,"[(2, 0.0004817650005861651), (3, 0.3938904869974067), (4, 0.5857736979996844), (5, 0.7618804759986233), (6, 1.1780552669988538), (6, 1.4339799559966195)]",0.5266717181858083
solo,51,22,-3,8,anticlockwise,anticlockwise,correct,1.1118771399997058,ac,500,1040,0,risky,0.9142599480001081,sr,5.0,1.315914036000322,4,"[(4, 0.000482490002468694), (5, 0.9329506550020596), (5, 1.3168395739994594)]",0.4711788602791787
solo,51,23,-3,64,clockwise,anticlockwise,wrong,2.3579281069978606,ca,500,1150,0,sure,1.1820881740022742,sr,1.0,1.7808579270022165,2,"[(2, 0.0005032999979448505), (1, 1.3657782660011435), (1, 1.7816364810023515)]",0.49527930352579524
solo,51,24,3,32,clockwise,clockwise,correct,0.6778474439997808,ac,500,940,-10,risky,1.1376006889986456,rs,4.0,1.0659511319972808,3,"[(3, 0.0004839369976252783), (4, 0.6029824639990693), (4, 1.0667284049995942)]",0.46490603354085863
solo,51,25,-3,8,anticlockwise,anticlockwise,correct,2.505783609998616,ca,500,700,0,risky,1.1971806330002437,sr,4.0,1.059224725002423,5,"[(5, 0.0004941189981764182), (4, 0.5482532200003334), (4, 1.0601593210012652)]",0.41084600126528636
solo,51,26,-3,64,clockwise,anticlockwise,wrong,1.5195386880004662,ca,500,1540,10,risky,1.0660176540004613,rs,2.0,1.637612861002708,1,"[(1, 0.0006265049996727612), (2, 1.366463955000654), (2, 1.6384491919998254)]",0.5023323034760898
solo,51,27,-3,16,clockwise,anticlockwise,wrong,1.691184682000312,ca,500,1270,-10,risky,1.246396382997773,sr,3.0,0.8345951179981057,3,"[(3, 0.0004943999992974568), (3, 0.8354266240021389)]",0.5037782514427727
solo,51,28,3,8,clockwise,clockwise,correct,1.192433735999657,ac,500,1270,-10,risky,1.08829926999897,sr,4.0,2.0268001459990046,1,"[(1, 0.0005066979974799324), (2, 0.6358233459977782), (3, 1.3878433739992033), (4, 1.6437915850001446), (4, 2.027604978000454)]",0.48701433037620345
solo,51,29,3,32,clockwise,clockwise,correct,0.9624349480000092,ca,500,700,-10,risky,0.8985402200014505,sr,5.0,1.556524964998971,6,"[(6, 0.0004939320024277549), (5, 0.4694135509998887), (4, 0.6775165440012643), (5, 1.1894362450002518), (5, 1.5572064670013788)]",0.4522010045426566
solo,51,30,3,64,clockwise,clockwise,correct,1.230535160000727,ca,500,640,10,sure,1.2846592300011253,sr,3.0,1.159420242998749,2,"[(2, 0.0005019689997425303), (3, 0.8723591050002142), (3, 1.160325135999301)]",0.465193789054976
solo,51,31,-3,32,clockwise,anticlockwise,wrong,2.083346216000791,ca,500,700,0,risky,0.9672687290003523,sr,4.0,1.8786728480008605,1,"[(1, 0.0005001260033168364), (2, 0.4396722880010202), (3, 0.631623886001762), (4, 0.8075698450011259), (5, 1.2077032790002704), (4, 1.2877342690007936), (4, 1.879624949000572)]",0.40909035856924464
solo,51,32,3,16,clockwise,clockwise,correct,1.4562506980000762,ac,500,590,0,sure,2.236705538001843,sr,2.0,1.2419077009981265,1,"[(1, 0.0004936100012855604), (2, 0.8108880889994907), (2, 1.2428171960018517)]",0.5519608965524648
solo,51,33,3,16,clockwise,clockwise,correct,1.052599292001105,ca,500,640,0,sure,1.145107836000534,sr,5.0,3.297618201999285,2,"[(2, 0.0004801169998245314), (3, 0.7864834089996293), (4, 0.978538725998078), (5, 1.1865708129989798), (4, 1.5867070499989495), (5, 2.1146104379986355), (6, 2.594434168000589), (5, 2.9625684610000462), (5, 3.2985866220005846)]",0.5616849918307605
solo,51,34,3,8,clockwise,clockwise,correct,0.8033316360015306,ca,500,550,0,sure,1.594559172001027,sr,6.0,0.7045590720008477,6,"[(6, 0.0006132480011729058), (6, 0.33711738899728516), (6, 0.7053631079979823)]",0.539769284180929
solo,51,35,-3,16,anticlockwise,anticlockwise,correct,1.022366522000084,ca,500,1400,-10,risky,1.0852802179979335,sr,5.0,2.487257190001401,4,"[(4, 0.0005034509995311964), (3, 0.5839919220015872), (4, 1.7682653330011817), (5, 2.040323220000573), (5, 2.487915512003383)]",0.4139166604068154
solo,51,36,-3,8,anticlockwise,anticlockwise,correct,1.3534218809982121,ca,500,850,10,risky,1.2108654399999068,sr,3.0,2.0800660330023675,4,"[(4, 0.0005220169987296686), (3, 1.1369588970010227), (3, 2.0811406030006765)]",0.5400861838104383
solo,51,37,3,32,clockwise,clockwise,correct,0.8676611019982374,ac,500,1040,10,risky,1.5597613740028464,sr,3.0,1.7593180740004755,3,"[(3, 0.0005014190028305165), (2, 1.0561742690006213), (3, 1.424095567999757), (3, 1.760148064000532)]",0.5094040554358964
solo,51,38,-3,64,clockwise,anticlockwise,wrong,1.2195935490017291,ac,500,590,10,sure,0.8412483210013306,rs,1.0,0.8308017919989652,2,"[(2, 0.0005482609994942322), (1, 0.351542910997523), (1, 0.8317927869975392)]",0.4061231340617522
solo,51,39,-3,32,anticlockwise,anticlockwise,correct,1.299247094000748,ac,500,1040,-10,sure,3.1104573310003616,rs,3.0,2.143871637999837,6,"[(6, 0.0005108580007799901), (5, 1.1048639670007105), (4, 1.4250356970005669), (3, 1.632824600001186), (3, 2.1447818759988877)]",0.5238043373844512
solo,51,40,3,64,clockwise,clockwise,correct,2.7574307640024927,ac,500,1400,-10,risky,1.2457220350006537,rs,2.0,0.8821855940004752,2,"[(2, 0.0004799800008186139), (2, 0.8831543409978622)]",0.4041658642880964
solo,51,41,3,32,clockwise,clockwise,correct,0.8523527429970272,ca,500,1540,10,risky,0.9840804489977018,rs,1.0,1.576451368000562,4,"[(4, 0.0005140710018167738), (3, 0.5535799450008199), (2, 0.889342693000799), (1, 1.161380238001584), (1, 1.5772684850016958)]",0.5445616675431105
solo,51,42,3,16,clockwise,clockwise,correct,1.1182687090004038,ac,500,1270,-10,risky,0.8729987090009672,sr,2.0,1.7405766080009926,4,"[(4, 0.0004771639978571329), (3, 0.5097070060000988), (2, 1.373527865998767), (2, 1.7414313439985563)]",0.5182333224370992
solo,51,43,-3,16,anticlockwise,anticlockwise,correct,1.2590731639975274,ca,500,640,-10,sure,1.3118744300008984,rs,3.0,1.152644773999782,5,"[(5, 0.0005169790019863285), (4, 0.4975566670000262), (3, 0.8335270850002416), (3, 1.1535353519975615)]",0.5733670276491267
solo,51,44,3,64,clockwise,clockwise,correct,2.887430309998308,ca,500,1150,10,risky,0.9871650989989575,sr,1.0,0.8265254129983077,2,"[(2, 0.00048732299910625443), (1, 0.45960548799848766), (1, 0.8275835400017968)]",0.559431677020992
solo,51,45,-3,8,anticlockwise,anticlockwise,correct,0.7365743910013407,ac,500,1270,-10,risky,1.497289497001475,rs,6.0,4.435388806003175,1,"[(1, 0.0004999480006517842), (2, 1.9882895069968072), (3, 2.964260942997498), (4, 3.1081648979998135), (5, 3.2524084609976853), (6, 3.3641493049981364), (6, 3.49232038899936), (6, 4.436354753997875)]",0.4795441035369694
solo,51,46,-3,32,anticlockwise,anticlockwise,correct,2.027059829000791,ca,500,640,0,sure,1.2170830579998437,rs,4.0,1.4787362839997513,2,"[(2, 0.000507085002027452), (3, 0.6156200169971271), (4, 0.807595644997491), (4, 1.4796966979993158)]",0.4620461011140482
solo,51,47,3,8,clockwise,clockwise,correct,0.9909939090030093,ca,500,1540,0,risky,0.7503746040019905,sr,5.0,1.3026725590025308,6,"[(6, 0.0004948370005877223), (5, 0.791499640999973), (5, 1.3036318420017778)]",0.5947306608235827
solo,51,48,-3,64,anticlockwise,anticlockwise,correct,1.658328380999592,ca,500,940,10,risky,1.1031746760017995,rs,3.0,2.1695748970014392,5,"[(5, 0.0004975140000169631), (4, 0.5704256829994847), (3, 1.018334936001338), (3, 2.170506820999435)]",0.484846224282433
solo,51,49,-3,64,anticlockwise,anticlockwise,correct,1.9279904100003478,ac,500,550,10,sure,1.1061046539980453,sr,2.0,2.8115867279993836,3,"[(3, 0.0005066390003776178), (2, 2.252579224998044), (2, 2.8122839909992763)]",0.43705522414345943
solo,51,50,3,16,clockwise,clockwise,correct,0.7109952079990762,ac,500,550,0,sure,1.3441841589992691,rs,4.0,1.0727704059972893,3,"[(3, 0.00048045299990917556), (4, 0.5938681410007121), (4, 1.0735550240024168)]",0.4075524285956314
solo,51,51,-3,32,clockwise,anticlockwise,wrong,0.7153715069980535,ac,500,1150,10,risky,1.2533805980019679,sr,3.0,2.201544522999029,3,"[(3, 0.0004996999996365048), (2, 1.082379093997588), (3, 1.4343006720009726), (3, 2.202321012999164)]",0.5408578392635349
solo,51,52,3,32,anticlockwise,clockwise,wrong,2.295831454001018,ac,500,770,-10,sure,1.1855924970004708,rs,2.0,2.633241777002695,3,"[(3, 0.0004967630011378787), (2, 0.6982445549983822), (1, 1.4502301549982803), (2, 2.1703204239966), (2, 2.6341849849995924)]",0.5339498805985883
solo,51,53,3,8,clockwise,clockwise,correct,0.9221239990001777,ca,500,640,10,risky,1.1806658310015337,rs,6.0,0.963997022001422,6,"[(6, 0.0004832270024053287), (6, 0.9647813239971583)]",0.40444343896962553
solo,51,54,3,64,anticlockwise,clockwise,wrong,1.3192930799996248,ac,500,1040,-10,risky,1.8490537380021124,rs,1.0,2.0380246059976344,4,"[(4, 0.0004824640018341597), (3, 0.390869480001129), (2, 1.33470706099979), (1, 1.5107869720013696), (1, 1.686739741002384), (1, 2.0388787560004857)]",0.4280947075627193
solo,51,55,-3,16,anticlockwise,anticlockwise,correct,1.3411845909977274,ca,500,590,10,sure,1.5982192939991364,sr,6.0,0.7085343159997137,6,"[(6, 0.0004916030011372641), (6, 0.7094692819991906)]",0.446840918559714
solo,51,56,-3,8,clockwise,anticlockwise,wrong,1.4047147170022072,ca,500,1400,10,risky,1.5639927850024833,sr,3.0,0.3395063220013981,3,"[(3, 0.000481277998915175), (3, 0.3405147539997415)]",0.5595838922777654
solo,51,57,-3,64,clockwise,anticlockwise,wrong,1.216421695000463,ac,500,1400,10,risky,0.9348219630010135,sr,1.0,1.5276370780011348,2,"[(2, 0.0005129900018800981), (1, 0.6485055209996062), (1, 1.528591594997124)]",0.4044274461104308
solo,51,58,-3,8,anticlockwise,anticlockwise,correct,1.1886231620010221,ca,500,640,10,risky,1.1643985240007169,sr,6.0,2.41972408500078,2,"[(2, 0.0004953110001224559), (3, 0.5324998370015237), (4, 0.692618664001202), (5, 0.8525746830018761), (6, 1.3966286290014978), (6, 2.4204719530025613)]",0.42894524754444885
solo,51,59,3,8,clockwise,clockwise,correct,1.272860788001708,ac,500,940,10,risky,1.5486819199977617,rs,5.0,1.4295174939979916,6,"[(6, 0.00048452900227857754), (5, 0.9023258599991095), (5, 1.4305366439984937)]",0.5147514984101217
solo,51,60,3,64,anticlockwise,clockwise,wrong,1.3932414360024268,ac,500,590,10,sure,1.456385984998633,sr,1.0,1.7882183709989476,5,"[(5, 0.0004746749982587062), (4, 0.39718613600052777), (3, 0.605171610997786), (2, 0.7811346509988653), (1, 0.9731088459993771), (1, 1.7892231160003575)]",0.55465445458405
solo,51,61,3,16,clockwise,clockwise,correct,1.3543896890005271,ca,500,940,0,risky,2.8757755730002827,rs,2.0,2.270953227998689,6,"[(6, 0.0004976080017513596), (5, 0.3678269759984687), (4, 0.5596741449990077), (3, 0.7359236650008825), (2, 1.024091691000649), (2, 2.2718741949975083)]",0.525910352644606
solo,51,62,-3,16,anticlockwise,anticlockwise,correct,0.7967143370005942,ac,500,1540,0,risky,0.7072337490026257,rs,3.0,2.3336296819979907,5,"[(5, 0.000489856000058353), (4, 0.7184089910006151), (3, 0.9104125420017226), (3, 2.334367988001759)]",0.48372366590222504
solo,51,63,3,32,clockwise,clockwise,correct,1.0595374119984626,ac,500,1150,0,risky,1.4878032630003872,rs,2.0,1.354315458000201,1,"[(1, 0.0005146180010342505), (2, 0.6351421710023715), (2, 1.3551353110015043)]",0.5932293608659254
solo,51,64,-3,32,anticlockwise,anticlockwise,correct,0.8599813039982109,ac,500,770,10,sure,1.1684853010010556,rs,2.0,3.38354757200068,6,"[(6, 0.0005091629973321687), (5, 0.456416386001365), (4, 0.6805386439991707), (3, 0.8565390469993872), (2, 1.2083816070007742), (3, 2.136522505999892), (2, 3.0004994750015612), (2, 3.3844680820002395)]",0.47895338879231975
solo,51,65,3,16,clockwise,clockwise,correct,1.540084067000862,ca,500,1150,10,risky,1.1336818090021552,sr,2.0,2.293992724000418,6,"[(6, 0.0004936370023642667), (5, 0.4228308130004734), (4, 0.6628731019991392), (3, 0.9669449649991293), (2, 1.1588255319984455), (1, 1.511133099997096), (2, 2.0228924219991313), (2, 2.294914236998011)]",0.5813040825708978
solo,51,66,-3,32,clockwise,anticlockwise,wrong,0.9489912399985769,ca,500,940,10,risky,1.3017864219982584,sr,3.0,2.5035725839989027,5,"[(5, 0.0005170869990251958), (4, 0.48859853699832456), (3, 0.7284602369982167), (2, 1.4967906509991735), (3, 2.2326233519997913), (3, 2.5044715299991367)]",0.4214157163801032
solo,51,67,-3,16,anticlockwise,anticlockwise,correct,0.904337398998905,ac,500,770,-10,sure,1.0197096230003808,rs,2.0,2.073528102002456,3,"[(3, 0.0005148249983903952), (2, 0.9065564349984925), (2, 2.0745143790009024)]",0.5582623659032733
solo,51,68,3,32,anticlockwise,clockwise,wrong,2.154155381998862,ca,500,1400,0,risky,1.1789437740007997,sr,2.0,1.7779966259986395,1,"[(1, 0.0005216850004217122), (2, 0.7071886589983478), (2, 1.7787213060000795)]",0.5938043033088951
solo,51,69,3,8,clockwise,clockwise,correct,0.8814640669988876,ca,500,1040,-10,risky,1.060807918998762,sr,4.0,2.2238050369996927,5,"[(5, 0.0004995609997422434), (4, 0.752672259000974), (4, 2.224751546000334)]",0.5098350406938204
solo,51,70,3,64,anticlockwise,clockwise,wrong,1.0554355210006179,ac,500,1270,-10,risky,0.8605639169982169,rs,1.0,1.2484089499994298,1,"[(1, 0.0005071949999546632), (1, 1.2492265490000136)]",0.4477591853282558
solo,51,71,-3,8,anticlockwise,anticlockwise,correct,1.094687110002269,ca,500,1150,10,risky,1.1692947199990158,rs,5.0,1.9761899459990673,2,"[(2, 0.0004993980001017917), (3, 0.5852127280013519), (4, 0.7930448189981689), (5, 1.4490823519990954), (5, 1.976972549000493)]",0.4773070348832676
solo,51,72,-3,64,anticlockwise,anticlockwise,correct,0.0022475509977084585,ca,500,640,10,sure,1.5450059850008984,sr,2.0,1.105190088001109,2,"[(2, 0.0005253650015220046), (2, 1.1060012050002115)]",0.45136324765604696
solo,51,73,3,32,clockwise,clockwise,correct,0.9896263349983201,ca,500,640,10,sure,0.9575321379998059,sr,1.0,2.41412631500134,5,"[(5, 0.0004785349992744159), (4, 0.8951625039990176), (3, 1.103113069999381), (2, 1.4552310639992356), (1, 1.6310359060007613), (1, 2.4150854500003334)]",0.45415395400903186
solo,51,74,-3,16,anticlockwise,anticlockwise,correct,1.1741521769981773,ca,500,550,0,sure,1.5017168119993585,rs,3.0,2.775796966001508,5,"[(5, 0.0004892149991064798), (4, 0.7768794629992044), (3, 1.0006050430019968), (2, 1.1766492810020281), (1, 1.3525297359992692), (2, 1.9288371600014216), (3, 2.216745344001538), (3, 2.7766585610006587)]",0.4379674746699541
solo,51,75,3,16,clockwise,clockwise,correct,1.0088115580001613,ac,500,700,0,sure,1.9352013319985417,rs,4.0,1.6561063700028171,2,"[(2, 0.00048642600086168386), (3, 0.5211462609986484), (4, 0.6970105649998004), (5, 0.8890538659979939), (4, 1.3211894659980317), (4, 1.656824310997763)]",0.4686701311295339
solo,51,76,-3,8,anticlockwise,anticlockwise,correct,0.97261371499917,ac,500,940,10,risky,1.2286385019979207,rs,4.0,1.410285672001919,5,"[(5, 0.0005053639979450963), (4, 0.5472396650002338), (4, 1.4111334759982128)]",0.5012067341594341
solo,51,77,3,8,clockwise,clockwise,correct,1.3592462760025228,ca,500,1400,0,risky,0.990487243001553,rs,2.0,1.2618571169987263,1,"[(1, 0.0004779539995070081), (2, 0.7187964439981442), (2, 1.2628668559991638)]",0.5379911985630024
solo,51,78,3,64,clockwise,clockwise,correct,1.1191165919990453,ca,500,1540,10,risky,1.2892969389977225,sr,3.0,3.2286046990011528,1,"[(1, 0.0005646200006594881), (2, 0.7976625109986344), (3, 1.9174857749967487), (3, 3.229499566998129)]",0.5497995848799655
solo,51,79,-3,32,clockwise,anticlockwise,wrong,0.005252129001746653,ac,500,590,-10,sure,2.5085149709993857,sr,1.0,1.2304303959972458,1,"[(1, 0.0005167970011825673), (1, 1.231140634001349)]",0.42225977493473155
solo,51,80,-3,64,anticlockwise,anticlockwise,correct,2.788957897999353,ac,500,1270,10,risky,1.6596485000009125,sr,1.0,0.7517586980029591,2,"[(2, 0.0005128029988554772), (1, 0.38485175499954494), (1, 0.7525452839981881)]",0.4839240802848853
solo,51,81,-3,16,anticlockwise,anticlockwise,correct,1.702862810001534,ac,500,1150,0,risky,1.3852964420002536,sr,3.0,3.239794664001238,3,"[(3, 0.0004998389995307662), (2, 0.6488904149991868), (3, 3.096793845998036), (3, 3.240500797997811)]",0.5574125589757541
solo,51,82,-3,8,anticlockwise,anticlockwise,correct,0.7484447060014645,ac,500,550,0,sure,1.1406135969991738,sr,5.0,1.8537553019996267,3,"[(3, 0.0005087050012662075), (4, 0.8948146059992723), (5, 1.118612480997399), (5, 1.854700125000818)]",0.5547122539731354
solo,51,83,3,16,clockwise,clockwise,correct,1.0148423300015565,ac,500,1540,-10,risky,1.2214960259989311,sr,3.0,1.3382546600005298,2,"[(2, 0.0005010919994674623), (3, 0.6831135259999428), (3, 1.339065539999865)]",0.5933780166591736
solo,51,84,3,64,clockwise,clockwise,correct,1.024053567001829,ac,500,550,-10,sure,1.54949395299991,sr,2.0,2.8211581549985567,4,"[(4, 0.0004894600024272222), (3, 1.6703016299979936), (2, 2.2301234449987533), (2, 2.82206271099858)]",0.4240386633352403
solo,51,85,3,32,clockwise,clockwise,correct,2.1437925120008003,ac,500,550,-10,sure,1.9694811650006159,rs,1.0,2.0078247409983305,5,"[(5, 0.0004813819978153333), (4, 0.6806162089997088), (3, 0.9047387409991643), (2, 1.112592293000489), (1, 1.4005891189990507), (1, 2.0086027440011094)]",0.41217920985622136
solo,51,86,-3,32,anticlockwise,anticlockwise,correct,0.9745394239980669,ac,500,1270,-10,risky,2.286536323001201,sr,4.0,1.2251492569994298,5,"[(5, 0.0004885410016868263), (4, 0.634104490000027), (4, 1.2260702499988838)]",0.5126991329642601
solo,51,87,3,8,clockwise,clockwise,correct,1.1671162259990524,ca,500,850,-10,risky,0.9192437680030707,sr,4.0,1.1447141419994296,1,"[(1, 0.0005216600002313498), (2, 0.4578094680000504), (3, 0.6495614710001973), (4, 0.8095599779990152), (4, 1.1455614250007784)]",0.4941554366565212
solo,51,88,-3,64,clockwise,anticlockwise,wrong,0.44518979100030265,ca,500,850,10,sure,0.9778198620006151,rs,1.0,1.0890803010006493,4,"[(4, 0.0005133870035933796), (3, 0.2579635939982836), (2, 0.4659874700009823), (1, 0.6260257600006298), (1, 0.7537301539996406), (1, 1.0898643539985642)]",0.5996575927702764
solo,51,89,3,16,clockwise,clockwise,correct,1.145382320999488,ac,500,770,-10,sure,1.1858300550011336,rs,5.0,2.360253152997757,1,"[(1, 0.0005187309980101418), (2, 0.5371534929981863), (3, 0.7451759159994253), (4, 0.9050660659995629), (5, 1.9131840800000646), (5, 2.361179968997021)]",0.5900777702626503
solo,51,90,-3,64,anticlockwise,anticlockwise,correct,1.2811136439995607,ac,500,770,10,sure,0.9963640429996303,sr,1.0,1.3953279119996296,4,"[(4, 0.0004890000018349383), (3, 0.3403851160001068), (2, 0.4841873059995123), (1, 0.6122771739974269), (1, 0.7880887309984246), (1, 1.3962000389983587)]",0.49973275270344103
solo,51,91,3,64,anticlockwise,clockwise,wrong,0.8514100180000241,ac,500,940,-10,risky,1.2086817199997313,rs,2.0,1.231344881998666,1,"[(1, 0.0005157260020496324), (2, 0.912439996998728), (2, 1.2322240889989189)]",0.45929680420378793
solo,51,92,3,8,clockwise,clockwise,correct,1.1863136870015296,ca,500,700,-10,risky,2.410596390000137,sr,4.0,2.623901487000694,6,"[(6, 0.0004876389975834172), (5, 1.2009188320007524), (4, 1.4248911880022206), (4, 2.624842017001356)]",0.5434393048356243
solo,51,93,-3,16,anticlockwise,anticlockwise,correct,0.9924664480022329,ca,500,700,10,risky,1.0872688140007085,rs,4.0,1.9947228480014019,3,"[(3, 0.00048368600255344063), (4, 0.6835835079982644), (4, 1.9954390249986318)]",0.42592516776676426
solo,51,94,-3,32,clockwise,anticlockwise,wrong,0.46647487899826956,ac,500,1400,10,risky,0.8386839859995234,rs,2.0,1.0191090410007746,2,"[(2, 0.0005015700007788837), (2, 1.0200511050024943)]",0.4898756927614728
solo,51,95,3,32,clockwise,clockwise,correct,0.8703947730027721,ca,500,1270,10,risky,1.1628537509968737,rs,6.0,1.3781360480024887,3,"[(3, 0.0005194240002310835), (4, 0.2749095560029673), (5, 0.49890399900323246), (6, 0.8509874720002699), (6, 1.3789398080007231)]",0.5674146507605766
solo,51,96,-3,8,anticlockwise,anticlockwise,correct,1.153481257999374,ca,500,590,0,sure,1.258114399999613,rs,5.0,2.222259292997478,6,"[(6, 0.0005139470013091341), (5, 0.8631481339980382), (5, 2.223237853999308)]",0.4999168457330031
