task,id,trial,ori_mean,ori_var,judge,answer,result,judge_rt,line_pos,payoff_sure,payoff_risky,payoff_jitter,choice,choice_rt,option_pos,rating,rating_rt,rating_init,rating_history,iti
solo,8,1,-3,16,anticlockwise,anticlockwise,correct,1.7086635019986716,ac,500,700,10,risky,1.4557142300000123,sr,3.0,1.5479152010011603,3,"[(3, 0.00036002599881612696), (3, 1.548853415002668)]",0.4122464535864822
solo,8,2,3,8,anticlockwise,clockwise,wrong,2.7899067380021734,ca,500,1540,10,risky,1.836699586998293,rs,4.0,4.409865073001129,6,"[(6, 0.0004930949980916921), (5, 2.0749687169991375), (4, 2.554884224999114), (4, 4.410588505001215)]",0.4895897493366762
solo,8,3,3,32,clockwise,clockwise,correct,1.40676296699894,ca,500,1400,-10,risky,1.1167064600012964,rs,4.0,2.7746209610013466,2,"[(2, 0.000500457997986814), (3, 1.383338650000951), (4, 1.9274875539995264), (4, 2.775365244000568)]",0.5452210409971704
solo,8,4,3,16,clockwise,clockwise,correct,1.1005174489982892,ca,500,1540,10,risky,2.1201302139998006,rs,3.0,2.0417981700011296,2,"[(2, 0.0005122490001667757), (3, 1.5306021299984423), (3, 2.0425470209993364)]",0.532474146161915
solo,8,5,-3,8,anticlockwise,anticlockwise,correct,1.9167358199993032,ac,500,700,-10,risky,3.1905229019976105,rs,5.0,2.8937349610023375,3,"[(3, 0.0005091339990030974), (4, 0.6866942790002213), (5, 0.9746063450002111), (5, 2.894663830000354)]",0.547839047439391
solo,8,6,-3,64,clockwise,anticlockwise,wrong,1.9212915810021514,ac,500,640,0,sure,3.3232846739992965,sr,1.0,4.318419782001001,2,"[(2, 0.0005203420005273074), (1, 2.479328577999695), (1, 4.319285370002035)]",0.4790600955001234
solo,8,7,-3,32,anticlockwise,anticlockwise,correct,1.1916956439999922,ac,500,1150,-10,risky,1.902337889001501,rs,4.0,2.456647636998241,1,"[(1, 0.0004879260013694875), (2, 1.1942026670003543), (3, 1.369511524997506), (4, 2.137591104998137), (4, 2.457456046999141)]",0.5209066091957619
solo,8,8,3,64,clockwise,clockwise,correct,1.0365182659988932,ac,500,1400,10,sure,0.9859861059994728,sr,2.0,2.585253864999686,5,"[(5, 0.0005065830009698402), (4, 0.9382710439967923), (3, 1.114151364999998), (2, 1.7540501869989384), (2, 2.5861138599975675)]",0.5256629295414699
solo,8,9,-3,16,anticlockwise,anticlockwise,correct,1.3694821419994696,ca,500,770,10,sure,1.5945848640003533,rs,4.0,1.9525211469990609,4,"[(4, 0.0004997130017727613), (4, 1.9535025430013775)]",0.4775837654381154
solo,8,10,-3,8,anticlockwise,anticlockwise,correct,1.3992760610017285,ac,500,1400,-10,risky,1.3343481090014393,sr,6.0,1.079565816999093,6,"[(6, 0.0004844470022362657), (6, 1.0802810160021181)]",0.5427412407729395
solo,8,11,-3,32,anticlockwise,anticlockwise,correct,2.367995847002021,ac,500,1040,10,sure,1.000410227003158,sr,1.0,3.0948794020005153,3,"[(3, 0.000492335999297211), (2, 1.6559151349974854), (1, 1.8315756139963923), (1, 3.0955888539974694)]",0.5730276110322847
solo,8,12,3,8,clockwise,clockwise,correct,1.6962162959971465,ca,500,1400,-10,risky,1.0747408009992796,sr,6.0,2.606471335999231,3,"[(3, 0.0004882670000370126), (4, 1.727411261999805), (5, 2.0634731329992064), (6, 2.3513272410018544), (6, 2.607252256002539)]",0.548722171755729
solo,8,13,3,16,clockwise,clockwise,correct,1.3904876009983127,ca,500,1270,-10,risky,1.0374690659991757,sr,6.0,1.2274973160019726,6,"[(6, 0.0004861940033151768), (6, 1.2285199369980546)]",0.4714959665388003
solo,8,14,3,32,clockwise,clockwise,correct,0.8938985999993747,ac,500,700,10,risky,1.217118278000271,rs,6.0,2.2464542379966588,3,"[(3, 0.00048238699673675), (4, 1.6391956910010776), (5, 1.8151777870007209), (6, 1.975291083999764), (6, 2.2472596100014925)]",0.5486938149784579
solo,8,15,-3,64,clockwise,anticlockwise,wrong,2.0877909129994805,ac,500,550,-10,sure,1.435078123002313,rs,2.0,2.712333896997734,6,"[(6, 0.0005130550016474444), (5, 1.0813019599991094), (4, 1.2891027810001106), (3, 1.4491715439980908), (2, 1.6253484449989628), (2, 2.713225160998263)]",0.4108754308353565
solo,8,16,3,64,clockwise,clockwise,correct,1.215447120997851,ca,500,1270,0,risky,1.381413535997126,rs,4.0,1.3159050559988827,3,"[(3, 0.0005081339986645617), (4, 1.0287318250011595), (4, 1.3165959649995784)]",0.5811121475678256
solo,8,17,-3,8,anticlockwise,anticlockwise,correct,1.0447189990009065,ca,500,1040,-10,risky,0.8328084980021231,rs,5.0,1.8611398089997238,6,"[(6, 0.0005115129970363341), (5, 0.9339714359994105), (5, 1.8620209170003363)]",0.5550861075427378
solo,8,18,-3,64,anticlockwise,anticlockwise,correct,1.8102387459985039,ac,500,770,-10,sure,1.42366498499905,sr,4.0,1.4214981209988764,1,"[(1, 0.0005120900023030117), (2, 0.8145059020025656), (3, 1.0223462470021332), (4, 1.1984626710000157), (4, 1.4223652220025542)]",0.5096455734899558
solo,8,19,3,8,clockwise,clockwise,correct,1.2153898830001708,ca,500,850,0,sure,4.325988267999492,sr,3.0,2.0466649110021535,3,"[(3, 0.0005192839998926502), (3, 2.0474583729992446)]",0.41497284358880027
solo,8,20,-3,32,anticlockwise,anticlockwise,correct,3.0422827059992414,ca,500,590,0,sure,1.663224984997214,rs,4.0,2.3230783159997372,1,"[(1, 0.00048578399946563877), (2, 1.6202366010002152), (3, 1.811987543002033), (4, 1.9559625229994708), (4, 2.3238816960001714)]",0.5443105776425062
solo,8,21,3,32,clockwise,clockwise,correct,0.9869964589997835,ac,500,1270,10,risky,0.8743431350012543,rs,4.0,1.7086875810018682,5,"[(5, 0.000490198999614222), (4, 0.9576841470006912), (4, 1.709594272000686)]",0.5688532917387865
solo,8,22,-3,16,anticlockwise,anticlockwise,correct,1.3436285899988434,ca,500,550,10,sure,1.3439816589998372,sr,5.0,2.736538755001675,3,"[(3, 0.00047556199933751486), (4, 1.1855001839976467), (5, 1.6335479429981206), (5, 2.7372898840003472)]",0.5113739328946724
solo,8,23,3,64,clockwise,clockwise,correct,1.4310596780014748,ac,500,590,-10,sure,0.9177485489999526,sr,2.0,3.7187805239991576,4,"[(4, 0.00048817599963513203), (3, 0.9677581379983167), (2, 3.0317185940002673), (2, 3.7195488440011104)]",0.5725724632158284
solo,8,24,3,16,clockwise,clockwise,correct,1.5894876960010151,ca,500,1400,10,risky,1.1486724389978917,sr,5.0,1.3017378189979354,3,"[(3, 0.0004968459979863837), (4, 0.8547216409970133), (5, 1.0306973989972903), (5, 1.302457270998275)]",0.5895671195604582
solo,8,25,-3,32,anticlockwise,anticlockwise,correct,1.4806250469991937,ac,500,640,10,sure,1.3005917299997236,sr,5.0,2.2466685120016336,6,"[(6, 0.0004987209977116436), (5, 0.8877280779997818), (5, 2.2473391230014386)]",0.48469899673867134
solo,8,26,-3,64,anticlockwise,anticlockwise,correct,2.039093977000448,ac,500,1150,10,sure,2.572670083001867,rs,1.0,1.3887120299987146,1,"[(1, 0.00047946999984560534), (1, 1.3896948960027657)]",0.4098047241166361
solo,8,27,3,64,clockwise,clockwise,correct,1.7084721039973374,ac,500,700,-10,sure,1.0065398040023865,rs,4.0,2.638003097999899,4,"[(4, 0.0004883760011580307), (5, 1.6791088680001849), (4, 2.335010170001624), (4, 2.6386853010008053)]",0.5051949063838379
solo,8,28,3,16,clockwise,clockwise,correct,1.078791210999043,ca,500,1040,-10,risky,1.2184566619980615,rs,6.0,1.0004461150019779,5,"[(5, 0.00047633000212954357), (6, 0.6493862810020801), (6, 1.0014516100018227)]",0.5964714911409317
solo,8,29,3,32,clockwise,clockwise,correct,0.963570328996866,ac,500,640,-10,risky,1.2045480119995773,rs,6.0,0.9541717870015418,3,"[(3, 0.0006039859981683549), (4, 0.4752373629999056), (5, 0.6350066980012343), (6, 0.7950944300027913), (6, 0.9550978549996216)]",0.5774887878312083
solo,8,30,-3,16,anticlockwise,anticlockwise,correct,1.7544810899998993,ca,500,640,0,risky,0.7165746559985564,rs,6.0,1.0452726080002321,3,"[(3, 0.00048035999861895107), (4, 0.5023273139995581), (5, 0.662126363000425), (6, 0.8221337189970654), (6, 1.045985834000021)]",0.49622983942423515
solo,8,31,-3,8,anticlockwise,anticlockwise,correct,1.4566688689992588,ca,500,850,10,sure,1.2132890979992226,sr,5.0,3.6984775150012865,4,"[(4, 0.000482228999317158), (5, 3.427415407000808), (5, 3.6994091199994728)]",0.5525042471168101
solo,8,32,3,8,clockwise,clockwise,correct,1.1599622140020074,ca,500,1040,0,risky,1.0715804800020123,sr,4.0,1.8515094419999514,3,"[(3, 0.00048148399946512654), (4, 1.4525284689989348), (4, 1.852324495997891)]",0.4560571369307513
solo,8,33,3,64,anticlockwise,clockwise,wrong,1.159939197001222,ca,500,1150,10,sure,1.2153045429986378,rs,1.0,2.037406748000649,6,"[(6, 0.0004816250002477318), (5, 0.7264842539989331), (4, 0.9343832810009189), (3, 1.1903797890008718), (2, 1.4463370150006085), (1, 1.8142007360002026), (1, 2.038349541999196)]",0.5230068668953086
solo,8,34,3,16,clockwise,clockwise,correct,1.3877802610004437,ca,500,940,-10,risky,2.4431050200000755,sr,4.0,2.89542610600256,1,"[(1, 0.0004868889991485048), (2, 0.8963501050020568), (3, 1.152357230999769), (4, 1.4083751950020087), (4, 2.8964852669996617)]",0.4901839730577932
solo,8,35,-3,64,anticlockwise,anticlockwise,correct,2.3561990550006158,ac,500,1270,0,risky,0.8125643080020382,rs,5.0,1.2348623309990217,3,"[(3, 0.0004830289981327951), (4, 0.931830829998944), (5, 1.075690220000979), (5, 1.2356653839997307)]",0.466374204620997
solo,8,36,-3,32,anticlockwise,anticlockwise,correct,0.9968692049988022,ac,500,1400,10,risky,1.2199906380010361,sr,4.0,1.5933048369988683,5,"[(5, 0.0004874459991697222), (4, 1.354252520002774), (4, 1.5942447140005243)]",0.5732078931310728
solo,8,37,3,8,clockwise,clockwise,correct,1.1516853319990332,ca,500,640,10,sure,1.192580259998067,sr,5.0,1.9029544919976615,6,"[(6, 0.00048265300210914575), (5, 0.8477016030010418), (4, 1.231651285001135), (5, 1.647653148000245), (5, 1.903841535000538)]",0.5265277483984216
solo,8,38,-3,16,anticlockwise,anticlockwise,correct,2.0573998330000904,ac,500,1400,0,risky,1.1343750729975,rs,5.0,0.951444418002211,1,"[(1, 0.0004809909987670835), (2, 0.344544979998318), (3, 0.5043330270018487), (4, 0.664336795998679), (5, 0.8082186020001245), (5, 0.9523626599984709)]",0.5107457085058178
solo,8,39,-3,8,anticlockwise,anticlockwise,correct,1.4006957790006709,ca,500,550,10,sure,1.3992484580012388,rs,5.0,1.1253541680016497,3,"[(3, 0.0004862990026595071), (4, 0.7104302309999184), (5, 0.9023956960008945), (5, 1.1260987030000251)]",0.4847044745856144
solo,8,40,3,32,clockwise,clockwise,correct,0.8149063519995252,ac,500,1040,-10,risky,0.8690767279986176,rs,5.0,1.736478722999891,1,"[(1, 0.0004890279997198377), (2, 0.47352428500016686), (3, 0.6173787389998324), (4, 0.7774103129995638), (5, 0.9054198690027988), (6, 1.0333435840002494), (5, 1.497522036999726), (5, 1.7374389649994555)]",0.49782900606933017
solo,8,41,3,16,clockwise,clockwise,correct,2.6687129890015058,ac,500,550,-10,sure,1.2567583689997264,sr,1.0,1.4378072950021306,3,"[(3, 0.0004833530001633335), (2, 0.7989658460028295), (1, 1.102730592003354), (1, 1.4384990670005209)]",0.43982428607297613
solo,8,42,3,32,anticlockwise,clockwise,wrong,1.0813612950005336,ac,500,550,10,sure,0.8531096730002901,rs,3.0,1.721453008998651,3,"[(3, 0.0005247990011412185), (3, 1.722416461998364)]",0.5439213461493728
solo,8,43,3,64,anticlockwise,clockwise,wrong,1.0063045019996935,ca,500,640,0,risky,1.1815157150012965,sr,4.0,1.6365245750021131,4,"[(4, 0.00048504599908483215), (4, 1.637451547998353)]",0.421330033306888
solo,8,44,-3,64,anticlockwise,anticlockwise,correct,1.9137377090009977,ac,500,700,0,sure,1.2040514260006603,sr,1.0,0.7948467989990604,1,"[(1, 0.0005677310000464786), (1, 0.7958409610000672)]",0.49858755294537443
solo,8,45,-3,8,anticlockwise,anticlockwise,correct,1.1207109200004197,ca,500,640,0,risky,0.9389098940009717,rs,6.0,1.4351187069987645,1,"[(1, 0.0004713279995485209), (2, 0.42815431200142484), (3, 0.5881201379997947), (4, 0.7480957119987579), (5, 0.9081696009998268), (6, 1.0361018080002395), (6, 1.4362091120019613)]",0.5166882380347828
solo,8,46,-3,32,anticlockwise,anticlockwise,correct,1.2090058409994526,ac,500,1540,10,risky,1.0236126750023686,rs,4.0,1.0362714580005559,6,"[(6, 0.0004864860020461492), (5, 0.6213898019996122), (4, 0.8292397519981023), (4, 1.0370254480003496)]",0.5044876880448241
solo,8,47,3,8,clockwise,clockwise,correct,0.8925836410016927,ac,500,590,-10,risky,1.3912183360007475,rs,6.0,0.8624454009986948,5,"[(5, 0.00048118000268004835), (6, 0.6076264330004051), (6, 0.8632883730024332)]",0.44269538531758834
solo,8,48,-3,16,anticlockwise,anticlockwise,correct,1.2167269540004781,ca,500,940,-10,risky,1.3974177640011476,rs,6.0,1.4763896940021368,1,"[(1, 0.00048386100024799816), (2, 0.4213457570003811), (3, 0.5972686109998904), (4, 0.7574915860022884), (5, 0.9172563640022418), (6, 1.029332008001802), (6, 1.477366114002507)]",0.5753914417895746
solo,8,49,3,16,anticlockwise,clockwise,wrong,1.7328447590007272,ac,500,770,-10,sure,0.8859888890001457,sr,2.0,1.4005115519976243,1,"[(1, 0.0005057919988757931), (2, 1.1614167699990503), (2, 1.4013126190002367)]",0.5184588551497954
solo,8,50,3,32,anticlockwise,clockwise,wrong,0.9378351820014359,ca,500,850,10,sure,0.779537075002736,rs,2.0,1.3463832849993196,4,"[(4, 0.0005065400000603404), (3, 0.7714185389995691), (2, 1.139256064001529), (2, 1.3471256090015231)]",0.4335155142175823
solo,8,51,3,64,anticlockwise,clockwise,wrong,1.2522835479976493,ac,500,850,10,sure,0.8087323250001646,rs,2.0,0.7986630509985844,3,"[(3, 0.00048727900139056146), (2, 0.6396863230002054), (2, 0.7994062299985671)]",0.48178234797246633
solo,8,52,3,8,clockwise,clockwise,correct,1.014129283001239,ca,500,700,0,risky,1.316132159998233,sr,4.0,1.765422448002937,6,"[(6, 0.0005012709989387076), (6, 0.5342259850003757), (5, 1.142321898998489), (4, 1.3342184120010643), (4, 1.7661550670018187)]",0.5050647513292715
solo,8,53,-3,64,anticlockwise,anticlockwise,correct,1.1412043519994768,ca,500,1040,-10,sure,1.182110133999231,rs,1.0,1.1092365740005334,1,"[(1, 0.0004816549990209751), (1, 1.1101234810012102)]",0.5117713155876471
solo,8,54,-3,16,anticlockwise,anticlockwise,correct,1.5384108050020586,ac,500,850,10,sure,1.275588044001779,rs,3.0,1.3256376509998518,5,"[(5, 0.0005628149992844556), (4, 0.8307724179976503), (3, 1.0226757799973711), (3, 1.3267531669989694)]",0.43173017119238394
solo,8,55,-3,32,clockwise,anticlockwise,wrong,0.8629115519979678,ca,500,850,-10,sure,0.7227791959994647,sr,2.0,1.2922296760007157,5,"[(5, 0.0004915509998681955), (4, 0.6691324210005405), (3, 0.8770129580007051), (2, 1.0849792000008165), (2, 1.292927761998726)]",0.5376410814627068
solo,8,56,-3,8,anticlockwise,anticlockwise,correct,0.9103352960009943,ca,500,1150,0,risky,0.8638115609974193,rs,6.0,1.8426477820030414,3,"[(3, 0.0005847460015502293), (4, 0.8835963240017009), (5, 1.1075292179993994), (6, 1.6676404630015895), (6, 1.84344716600026)]",0.5429830919618301
solo,8,57,-3,64,anticlockwise,anticlockwise,correct,1.8253651179984445,ca,500,940,0,sure,1.055088799999794,sr,1.0,1.7069007780009997,6,"[(6, 0.0005056399968452752), (5, 0.5719120130015654), (4, 0.7956235099991318), (3, 0.9717069380021712), (2, 1.1638210290002462), (1, 1.3397047460020985), (1, 1.7076280790024612)]",0.47204033873146095
solo,8,58,3,32,clockwise,clockwise,correct,1.1847955160010315,ca,500,940,-10,risky,1.0321135189988127,sr,4.0,1.1408681180000713,1,"[(1, 0.0004953670031682122), (2, 0.6298270999977831), (3, 0.8057342920001247), (4, 0.9656809839980269), (4, 1.1416627849976066)]",0.4341405033518727
solo,8,59,-3,8,anticlockwise,anticlockwise,correct,1.855707850001636,ca,500,940,10,risky,1.244675969999662,rs,6.0,0.8172058589989319,5,"[(5, 0.0004846900010306854), (6, 0.2900970219998271), (6, 0.8180110309986048)]",0.4590348072204414
solo,8,60,3,16,clockwise,clockwise,correct,0.9818423340002482,ac,500,850,0,risky,0.918493398999999,rs,5.0,0.9676065880012175,6,"[(6, 0.0004941450024489313), (5, 0.7607171629970253), (5, 0.9685562979975657)]",0.5271919538128835
solo,8,61,-3,32,anticlockwise,anticlockwise,correct,2.0881645740009844,ca,500,550,-10,sure,1.0839404389989795,rs,2.0,1.318914390001737,3,"[(3, 0.0004910180032311473), (2, 0.7119075039991003), (2, 1.319570305000525)]",0.4935999959946727
solo,8,62,-3,16,anticlockwise,anticlockwise,correct,1.2609495610013255,ca,500,1150,-10,risky,0.8649823699997796,sr,6.0,1.0118214889989758,4,"[(4, 0.0004897640028502792), (5, 0.5648080959981598), (6, 0.7888329359993804), (6, 1.0126015460009512)]",0.40631802788974847
solo,8,63,3,64,anticlockwise,clockwise,wrong,0.965631207000115,ca,500,550,-10,sure,1.2863179629966908,rs,3.0,1.4647469129995443,6,"[(6, 0.0004971510024915915), (5, 0.7616860189991712), (4, 1.0336309990016161), (3, 1.2254731670000183), (3, 1.465635780001321)]",0.4268897229620558
solo,8,64,3,8,clockwise,clockwise,correct,0.9621836120022635,ac,500,1270,-10,risky,1.2025299150009232,sr,5.0,1.6884217819970218,6,"[(6, 0.0005642910000460688), (5, 0.5533573799984879), (5, 1.6890828059986234)]",0.5637518577612921
solo,8,65,3,16,clockwise,clockwise,correct,1.129487436999625,ca,500,590,10,sure,0.7708075420014211,rs,4.0,2.3306863119978516,2,"[(2, 0.0005016229988541454), (3, 0.6677298780014098), (4, 1.627581069998996), (4, 2.3315089919997263)]",0.5737844790108946
solo,8,66,-3,8,anticlockwise,anticlockwise,correct,1.0137934120029968,ac,500,1540,10,risky,0.8202507840032922,sr,6.0,0.7455739719989651,6,"[(6, 0.0005081119998067152), (6, 0.7463684810027189)]",0.45870430068328705
solo,8,67,-3,16,anticlockwise,anticlockwise,correct,1.1081743050017394,ac,500,1540,0,risky,0.7669431829999667,sr,5.0,0.8385962060019665,3,"[(3, 0.0005211659990891349), (4, 0.50358099100049), (5, 0.6634704940006486), (5, 0.8393797120006639)]",0.45375594473943914
solo,8,68,3,64,clockwise,clockwise,correct,0.9752974009970785,ca,500,1040,0,risky,0.6712495540014061,rs,4.0,1.2908257079980103,1,"[(1, 0.0005091620005259756), (1, 0.37945458000103827), (1, 0.571487547000288), (2, 0.7957585609983653), (3, 1.0036642189988925), (4, 1.1315892989987333), (4, 1.2915953750016342)]",0.4357239310690178
solo,8,69,3,8,clockwise,clockwise,correct,1.0835140309973212,ca,500,770,-10,risky,0.8238243039995723,sr,6.0,2.3326649740010907,3,"[(3, 0.0004927849986415822), (4, 0.5253874310001265), (5, 0.7013809890013363), (6, 2.045683585001825), (6, 2.3335901310019835)]",0.5327394973027045
solo,8,70,-3,32,anticlockwise,anticlockwise,correct,1.2905056499985221,ca,500,940,10,sure,1.277642568002193,rs,2.0,0.976303953997558,4,"[(4, 0.00048229400272248313), (3, 0.4493188500018732), (2, 0.7211486580017663), (2, 0.9771898380022321)]",0.41562410128966476
solo,8,71,3,32,clockwise,clockwise,correct,1.0556857289993786,ca,500,770,-10,sure,0.9240374439978041,sr,2.0,2.861201591000281,1,"[(1, 0.0005147509982634801), (2, 0.46234283699959633), (1, 2.3021810640020703), (2, 2.6701757299997553), (2, 2.861977239001135)]",0.5108911648402318
solo,8,72,-3,64,anticlockwise,anticlockwise,correct,1.1510476260009455,ca,500,1400,-10,risky,1.0152187359999516,rs,4.0,0.9175506079991465,1,"[(1, 0.0004986989988537971), (2, 0.3586187289984082), (3, 0.5344301639997866), (4, 0.7103457289995276), (4, 0.9182824589988741)]",0.5941868057277642
solo,8,73,3,8,clockwise,clockwise,correct,1.061431864000042,ac,500,940,0,risky,0.7208655499998713,sr,5.0,0.8910316059991601,5,"[(5, 0.000515515999722993), (5, 0.8917076899997483)]",0.5478087241690169
solo,8,74,-3,8,anticlockwise,anticlockwise,correct,1.0546819959999993,ac,500,1270,10,risky,0.8752935520024039,rs,6.0,1.198080118996586,1,"[(1, 0.0005038089984736871), (2, 0.3990290420006204), (3, 0.5589250369994261), (4, 0.718949320998945), (5, 0.8948874859997886), (6, 1.0390573849981593), (6, 1.198844602000463)]",0.49579885517786293
solo,8,75,3,32,clockwise,clockwise,correct,3.128715843999089,ca,500,1540,-10,risky,2.9301978960029373,rs,3.0,2.8838393510013702,2,"[(2, 0.0004903640001430176), (3, 2.5647587180028495), (3, 2.8847657410005922)]",0.42200730883517024
solo,8,76,3,16,clockwise,clockwise,correct,1.3197566310009279,ca,500,1150,10,risky,0.9221119479989284,sr,4.0,0.763195187002566,3,"[(3, 0.0004977859971404541), (4, 0.44422312200185843), (4, 0.7640827420000278)]",0.4791879609175097
solo,8,77,-3,32,anticlockwise,anticlockwise,correct,0.933899569001369,ca,500,1270,0,risky,0.9035938740016718,sr,4.0,1.1300451319984859,1,"[(1, 0.000496256001497386), (2, 0.5390618549972714), (3, 0.7310064599987527), (4, 0.92286012799741), (4, 1.1309031969976786)]",0.4337968993786043
solo,8,78,-3,64,clockwise,anticlockwise,wrong,1.602578795998852,ca,500,590,0,sure,1.1127974679984618,sr,2.0,2.8337038409990782,3,"[(3, 0.0004918309969070833), (2, 2.5467849540000316), (2, 2.8346433010010514)]",0.5434556849072095
solo,8,79,-3,16,anticlockwise,anticlockwise,correct,1.2280894559989974,ca,500,1040,0,risky,0.6738478469997062,sr,4.0,1.2286416400020244,1,"[(1, 0.0004898330007563345), (2, 0.6375763050018577), (3, 0.7814452980019269), (4, 0.9415210200022557), (4, 1.22938103100023)]",0.40771130772902753
solo,8,80,3,64,clockwise,clockwise,correct,1.1854568500020832,ac,500,1540,10,risky,0.6646455420013808,sr,3.0,0.7888657709991094,4,"[(4, 0.000507625998579897), (3, 0.613868119999097), (3, 0.7896818379995239)]",0.5215041926083559
solo,8,81,-3,64,anticlockwise,anticlockwise,correct,1.0861729349999223,ca,500,850,10,sure,0.9373837880011706,sr,4.0,1.0348875370000314,1,"[(1, 0.00048752399743534625), (2, 0.5556590560008772), (3, 0.7156226250008331), (4, 0.859752540000045), (4, 1.0358012930009863)]",0.45921852787992534
solo,8,82,3,32,clockwise,clockwise,correct,1.1913438600022346,ca,500,590,-10,sure,1.166533708001225,sr,3.0,2.0063469470005657,1,"[(1, 0.0004847000018344261), (2, 1.1114006950010662), (3, 1.431419332002406), (3, 2.00718043100278)]",0.5165513060949725
solo,8,83,3,8,clockwise,clockwise,correct,1.483251260000543,ac,500,550,10,sure,2.0065809590014396,rs,5.0,1.7573009439984162,1,"[(1, 0.000499079000292113), (2, 0.9904212619985628), (3, 1.1823304210010974), (4, 1.3261775099999795), (5, 1.486155468999641), (5, 1.7580960390005202)]",0.555282626248298
solo,8,84,3,64,anticlockwise,clockwise,wrong,0.8469446109993441,ca,500,770,0,risky,0.7073355190004804,sr,6.0,0.9094733120000456,6,"[(6, 0.00048480500117875636), (6, 0.910455171000649)]",0.48090178588436666
solo,8,85,-3,32,anticlockwise,anticlockwise,correct,1.937916218997998,ac,500,770,10,risky,0.7802913279992936,rs,6.0,1.506263384999329,4,"[(4, 0.0005273450005915947), (5, 1.1072064449981553), (6, 1.267052244998922), (6, 1.5069170179995126)]",0.4357985076410895
solo,8,86,-3,16,anticlockwise,anticlockwise,correct,1.1370260809999309,ac,500,1270,10,sure,1.4023663940024562,sr,1.0,1.352678602001106,2,"[(2, 0.0005622509997920133), (1, 1.0814256340017891), (1, 1.353346556003089)]",0.4200864825046915
solo,8,87,-3,8,anticlockwise,anticlockwise,correct,1.0016600329981884,ca,500,590,-10,risky,0.9682389139998122,sr,6.0,0.7749579930023174,6,"[(6, 0.0004898289989796467), (6, 0.7760126300017873)]",0.5101159987799924
solo,8,88,3,16,clockwise,clockwise,correct,0.7518679379973037,ac,500,700,0,sure,1.7851383390006959,rs,5.0,1.8149761560016486,1,"[(1, 0.0005372510022425558), (2, 0.824014347002958), (3, 1.0158241580029426), (4, 1.1760148890025448), (5, 1.6238231650022499), (5, 1.8158634430001257)]",0.487016825083549
solo,8,89,3,16,anticlockwise,clockwise,wrong,1.4004892660013866,ca,500,640,10,sure,1.1431399879984383,sr,3.0,1.359298351999314,1,"[(1, 0.00048622100075590424), (2, 0.8961967600007483), (3, 1.1200145139991946), (3, 1.3600525170004403)]",0.4400333082239891
solo,8,90,-3,8,anticlockwise,anticlockwise,correct,2.018744101998891,ca,500,770,-10,risky,0.888450301001285,sr,5.0,0.6998174590007693,4,"[(4, 0.0004844110007979907), (5, 0.36487658899932285), (5, 0.7006395780008461)]",0.4273421479241365
solo,8,91,-3,64,clockwise,anticlockwise,wrong,1.098385730998416,ca,500,1540,-10,risky,2.7729665970000497,rs,4.0,1.405454583997198,4,"[(4, 0.000480432001495501), (4, 1.4062490979995346)]",0.40604605565510377
solo,8,92,3,32,anticlockwise,clockwise,wrong,0.7680625560024055,ca,500,1150,-10,risky,1.672559556998749,sr,4.0,1.0677637469998444,2,"[(2, 0.0005214959965087473), (3, 0.7167276569998648), (4, 0.8764925930008758), (4, 1.068607200999395)]",0.41126388873078423
solo,8,93,-3,16,anticlockwise,anticlockwise,correct,1.2266957159990852,ac,500,590,0,risky,2.1443938739976147,sr,5.0,3.5196383519978554,2,"[(2, 0.000513719001901336), (3, 1.4085364930033393), (4, 1.6166681440008688), (5, 1.7765746070035675), (5, 3.5205078950020834)]",0.43208594738339423
solo,8,94,3,8,clockwise,clockwise,correct,1.132234057997266,ca,500,1150,0,risky,0.7580184020007437,rs,5.0,1.7583037359981972,6,"[(6, 0.0004938390011375304), (5, 1.5990957050016732), (5, 1.7591465830009838)]",0.44750895332350465
solo,8,95,3,64,clockwise,clockwise,correct,1.5201014379999833,ac,500,940,10,sure,0.9227365400001872,sr,2.0,1.595881647997885,1,"[(1, 0.00048752400107332505), (2, 1.340692035999382), (2, 1.5965916019995348)]",0.4514866489000991
solo,8,96,-3,32,anticlockwise,anticlockwise,correct,1.3785860710013367,ca,500,700,10,sure,0.7217017590010073,sr,4.0,1.627614889999677,5,"[(5, 0.0005110349993628915), (4, 0.6204637539995019), (4, 1.6286024109977006)]",0.522098829438345
