task,id,trial,ori_mean,ori_var,judge,answer,result,judge_rt,line_pos,payoff_sure,payoff_risky,payoff_jitter,choice,choice_rt,option_pos,rating,rating_rt,rating_init,rating_history,iti
solo,53,1,3,8,clockwise,clockwise,correct,1.197917352001241,ca,500,700,10,risky,1.349707198998658,sr,5.0,1.7808619770003133,6,"[(6, 0.0003633699998317752), (5, 1.413633178002783), (5, 1.7818744540018088)]",0.42342500270447975
solo,53,2,-3,32,anticlockwise,anticlockwise,correct,0.7897819770005299,ca,500,640,-10,sure,3.4522647239973594,sr,4.0,3.095916860998841,3,"[(3, 0.0004788049991475418), (4, 2.617402674000914), (4, 3.097093259999383)]",0.49830335769163775
solo,53,3,3,16,clockwise,clockwise,correct,1.135650757001713,ac,500,770,10,risky,1.0020072929983144,sr,6.0,2.2001610689985682,3,"[(3, 0.00047296200136770494), (4, 1.4492486260023725), (5, 1.6729325279993645), (6, 1.9449228490011592), (6, 2.2011320880010317)]",0.5834249025522867
solo,53,4,3,64,clockwise,clockwise,correct,0.8563305070019851,ac,500,770,0,risky,0.9567598960020405,sr,3.0,1.6446143909997772,2,"[(2, 0.00048100400090334006), (3, 1.3415884810019634), (3, 1.6455956570025592)]",0.4612131464779756
solo,53,5,3,32,anticlockwise,clockwise,wrong,2.437805927002046,ca,500,1150,-10,risky,1.195443446002173,rs,2.0,1.7611232129966083,1,"[(1, 0.00048820099982549436), (2, 1.4580149820030783), (2, 1.7619778040025267)]",0.4229761473223116
solo,53,6,-3,8,anticlockwise,anticlockwise,correct,1.314291663999029,ca,500,590,0,risky,1.6048794300004374,rs,6.0,1.89972514100009,5,"[(5, 0.00048418499864055775), (6, 1.6127823039969371), (6, 1.9006209549988853)]",0.46706467056774736
solo,53,7,-3,16,anticlockwise,anticlockwise,correct,1.5396104179999384,ca,500,940,-10,sure,1.5653393359971233,sr,2.0,1.5245294980013568,4,"[(4, 0.00047703100062790327), (3, 0.917526799999905), (2, 1.237501630999759), (2, 1.5254772179978318)]",0.5603909919576548
solo,53,8,-3,64,clockwise,anticlockwise,wrong,1.6666115469997749,ca,500,550,-10,sure,1.2537017659997218,sr,1.0,2.2985176619986305,4,"[(4, 0.00047838799946475774), (3, 1.499712978999014), (2, 1.803503584000282), (1, 2.059543596002186), (1, 2.2994058379990747)]",0.42507131103864076
solo,53,9,-3,8,anticlockwise,anticlockwise,correct,0.7269180589973985,ac,500,1040,-10,risky,0.9450703540023824,rs,4.0,1.0569778210010554,4,"[(4, 0.00048728700130595826), (4, 1.0580014000006486)]",0.4499744301285858
solo,53,10,-3,16,anticlockwise,anticlockwise,correct,0.8634966620011255,ac,500,700,-10,sure,0.8035188430003473,rs,2.0,1.8650988660010626,5,"[(5, 0.0005158849999133963), (4, 0.8583345530023507), (3, 1.0820966780011076), (2, 1.3700623670010827), (2, 1.8660189940019336)]",0.45645872672751364
solo,53,11,-3,64,anticlockwise,anticlockwise,correct,2.851938458999939,ac,500,770,10,sure,1.1599464949977119,sr,1.0,0.9437975910004752,1,"[(1, 0.00048440200043842196), (1, 0.9447815530002117)]",0.5550996372732367
solo,53,12,-3,32,anticlockwise,anticlockwise,correct,1.1809875669969188,ca,500,940,10,risky,1.044346147999022,rs,5.0,1.6655154000000039,6,"[(6, 0.0004909700001007877), (5, 1.4105435710007441), (5, 1.666403620998608)]",0.5832418712431808
solo,53,13,3,16,anticlockwise,clockwise,wrong,2.998192569000821,ac,500,1540,10,sure,1.5573760110019066,sr,1.0,1.7577590109976882,3,"[(3, 0.0004969639994669706), (2, 1.2947725230005744), (1, 1.534821061999537), (1, 1.758423645998846)]",0.46433336690874955
solo,53,14,3,64,anticlockwise,clockwise,wrong,1.6915777630019875,ac,500,700,0,sure,0.8945301419989846,rs,1.0,1.4098218680010177,1,"[(1, 0.0004802980001841206), (1, 1.4109189590017195)]",0.5665466260316724
solo,53,15,3,8,clockwise,clockwise,correct,0.9899284499988426,ca,500,1540,10,risky,0.6858142649980437,rs,5.0,1.400393970998266,4,"[(4, 0.0005317779978213366), (5, 1.065259495000646), (5, 1.4012234010006068)]",0.5378540078879999
solo,53,16,3,32,clockwise,clockwise,correct,0.8101551949985151,ca,500,1540,0,risky,0.9281152139992628,sr,4.0,1.216928210997139,3,"[(3, 0.00048212399997282773), (4, 0.9619587879969913), (4, 1.2179104309980175)]",0.4448992591689514
solo,53,17,-3,8,anticlockwise,anticlockwise,correct,1.1075762149994262,ca,500,700,0,risky,0.8462798949985881,rs,6.0,3.442087323997839,1,"[(1, 0.0004999310003768187), (2, 0.8831290909984091), (3, 1.1230782460006594), (4, 1.2990789519972168), (5, 1.49117686399768), (6, 2.2430601859996386), (6, 3.4429915959990467)]",0.5891916051857542
solo,53,18,-3,32,anticlockwise,anticlockwise,correct,0.913822168000479,ac,500,1270,10,risky,0.8357798729994101,sr,5.0,1.6404659649997484,2,"[(2, 0.0004781709976668935), (3, 0.8255737390027207), (4, 1.0654756330004602), (5, 1.2734219920021133), (5, 1.641391895002016)]",0.4473494484595411
solo,53,19,-3,16,anticlockwise,anticlockwise,correct,0.9388319770005182,ca,500,1540,-10,risky,0.940737992998038,sr,6.0,1.5804473669995787,2,"[(2, 0.0004826540025533177), (3, 0.5095075379977061), (4, 0.7494672149987309), (5, 0.9414515629978268), (6, 1.1974359909982013), (6, 1.581237770998996)]",0.5624954463323154
solo,53,20,3,16,clockwise,clockwise,correct,0.9472048409988929,ac,500,640,0,sure,1.1075608669998473,sr,1.0,0.8777212890017836,1,"[(1, 0.000481270002637757), (1, 0.8788221540016821)]",0.5412807147068267
solo,53,21,-3,64,anticlockwise,anticlockwise,correct,2.638827950999257,ca,500,700,10,sure,1.0053014289987914,sr,3.0,1.4987859739994747,4,"[(4, 0.0004746999984490685), (3, 0.9556203599968285), (3, 1.4996943799997098)]",0.5422925080104635
solo,53,22,3,64,clockwise,clockwise,correct,0.9970253829997091,ca,500,640,-10,sure,0.7873693509973236,sr,2.0,1.418780528998468,3,"[(3, 0.0004956560005666688), (2, 1.051811805999023), (2, 1.4196416560007492)]",0.5303867451130267
solo,53,23,3,8,clockwise,clockwise,correct,1.2273743810001179,ca,500,590,10,risky,0.9770329659986601,sr,5.0,1.6957554250002431,2,"[(2, 0.00048810999942361377), (3, 0.7206455230007123), (4, 0.9445870650015422), (5, 1.2005834720002895), (5, 1.696651305002888)]",0.4310449222987306
solo,53,24,3,32,anticlockwise,clockwise,wrong,1.9727112209984625,ca,500,700,-10,sure,0.8126721609987726,sr,1.0,1.9222234670014586,4,"[(4, 0.0004797809997398872), (3, 1.1552460419989075), (2, 1.4270182330001262), (1, 1.6510159329991438), (1, 1.9231057729994063)]",0.4305877853883876
solo,53,25,3,32,clockwise,clockwise,correct,1.1139081080000324,ac,500,770,-10,sure,1.412394482998934,rs,2.0,1.4897006769970176,1,"[(1, 0.0004796979992534034), (2, 1.1552114539990725), (2, 1.4910047400007898)]",0.5717977757927064
solo,53,26,-3,64,clockwise,anticlockwise,wrong,1.1637920579996717,ac,500,1270,10,risky,1.2198738740007684,rs,3.0,1.0330989880021662,2,"[(2, 0.0004780039998877328), (3, 0.666223619999073), (3, 1.033898596000654)]",0.5575867007204893
solo,53,27,3,16,clockwise,clockwise,correct,0.9857860089978203,ca,500,550,0,sure,2.729605399999855,sr,5.0,0.898265010000614,5,"[(5, 0.0004864110014750622), (5, 0.899211069001467)]",0.444638403793745
solo,53,28,-3,8,anticlockwise,anticlockwise,correct,1.0148733080022794,ac,500,550,0,sure,1.9241116610028257,sr,1.0,0.8941083370009437,1,"[(1, 0.000507171997014666), (1, 0.8949859319982352)]",0.4723678453796556
solo,53,29,-3,32,anticlockwise,anticlockwise,correct,0.7835704919998534,ac,500,1040,10,risky,1.0628205760003766,sr,5.0,0.6735830299985537,5,"[(5, 0.0005090039994684048), (5, 0.6748061279977264)]",0.5309309158516466
solo,53,30,3,64,clockwise,clockwise,correct,0.9278938739989826,ca,500,940,0,sure,1.6651227570000628,sr,3.0,1.2525890010001604,2,"[(2, 0.0004926840010739397), (3, 0.9018398890002572), (3, 1.253824251001788)]",0.4716523606328691
solo,53,31,-3,16,clockwise,anticlockwise,wrong,0.7798998699981894,ca,500,1270,-10,sure,1.0271421249999548,sr,2.0,1.7111171420001483,4,"[(4, 0.00047498200001427904), (3, 1.0880998089996865), (2, 1.3920562829989649), (2, 1.7120144519976748)]",0.4543596408310922
solo,53,32,3,8,clockwise,clockwise,correct,0.9475364010031626,ca,500,1040,0,risky,1.044264436000958,rs,6.0,0.8159773520019371,6,"[(6, 0.00048138499914784916), (6, 0.8167425190003996)]",0.4698040678105847
solo,53,33,-3,16,anticlockwise,anticlockwise,correct,0.889813587997196,ca,500,550,0,sure,2.8139369429991348,rs,4.0,1.9554057820023445,2,"[(2, 0.0005101950009702705), (3, 1.380262456001219), (4, 1.6681305579986656), (4, 1.9562307660016813)]",0.404045438995954
solo,53,34,3,64,anticlockwise,clockwise,wrong,2.6660688890005986,ac,500,1150,0,sure,1.0153221459986526,sr,1.0,0.9323877800015907,1,"[(1, 0.0004841510017286055), (1, 0.9334601279988419)]",0.5500822708736284
solo,53,35,3,8,clockwise,clockwise,correct,0.7429459269988001,ac,500,940,0,risky,1.086831208998774,sr,5.0,0.7304444639994472,5,"[(5, 0.00048292499923263676), (5, 0.7314399220013001)]",0.46823074088686667
solo,53,36,-3,8,anticlockwise,anticlockwise,correct,1.2209542700002203,ac,500,1400,0,risky,1.0828849040008208,sr,4.0,1.3983738019996963,3,"[(3, 0.0005037779992562719), (4, 1.0472941799998807), (4, 1.3993751420021)]",0.4715862395312288
solo,53,37,-3,64,anticlockwise,anticlockwise,correct,1.221935522997228,ca,500,1040,-10,risky,0.9070693780013244,rs,4.0,0.7178028390007967,4,"[(4, 0.000514334999024868), (4, 0.7187693870000658)]",0.4869794914932074
solo,53,38,3,32,clockwise,clockwise,correct,1.113178773000982,ca,500,640,0,sure,1.2509847300025285,rs,4.0,2.0722153520000575,1,"[(1, 0.000511931000801269), (2, 1.033146127996588), (3, 1.2891072389975307), (4, 1.545120089998818), (4, 2.0729630249988986)]",0.45598872173951005
solo,53,39,3,16,clockwise,clockwise,correct,0.8081761469984485,ca,500,590,10,sure,1.4546494490023179,rs,5.0,2.4107494950003456,1,"[(1, 0.0005309000007400755), (2, 1.435479135998321), (3, 1.6275768089981284), (4, 1.8356510099984007), (5, 2.1557352879972314), (5, 2.4116256589986733)]",0.5951611524035652
solo,53,40,-3,32,anticlockwise,anticlockwise,correct,2.2569502580008702,ac,500,590,0,sure,0.9900939580002159,rs,3.0,0.7480675920014619,3,"[(3, 0.0004755299996759277), (3, 0.7491350889977184)]",0.5180967704246217
solo,53,41,-3,32,anticlockwise,anticlockwise,correct,1.110373161998723,ac,500,850,0,risky,0.9123590310009604,rs,3.0,1.9544068420000258,2,"[(2, 0.0006444069986173417), (3, 0.7393101990019204), (3, 1.9552095370017923)]",0.4616197940336863
solo,53,42,-3,64,anticlockwise,anticlockwise,correct,5.307852385001752,ca,500,940,0,sure,0.9435170169999765,rs,4.0,1.3587931860020035,6,"[(6, 0.0005306819984980393), (5, 0.7037359349997132), (4, 0.9918086170000606), (4, 1.3596013899987156)]",0.4923892513655181
solo,53,43,3,32,anticlockwise,clockwise,wrong,1.9044746850013325,ac,500,1040,-10,sure,1.2270394090010086,sr,3.0,1.5668754459984484,5,"[(5, 0.0004852370002481621), (4, 1.0555893469972943), (3, 1.3277762949983298), (3, 1.5677578350005206)]",0.4901539707785717
solo,53,44,3,64,anticlockwise,clockwise,wrong,2.245952576999116,ac,500,550,0,sure,0.9472361049993197,sr,1.0,0.7715581989978091,1,"[(1, 0.0005034259993408341), (1, 0.7723420209986216)]",0.5545454088107259
solo,53,45,3,16,clockwise,clockwise,correct,1.0478280759998597,ac,500,1150,0,risky,1.075658575999114,sr,3.0,1.615672153999185,4,"[(4, 0.0006149020009615924), (3, 1.3446782969986089), (3, 1.6167196169990348)]",0.5868915352408778
solo,53,46,3,8,clockwise,clockwise,correct,0.8840504619984131,ac,500,1270,-10,risky,1.2549763200004236,rs,6.0,2.1558765010013303,3,"[(3, 0.00048615600098855793), (4, 0.7166965399992478), (5, 0.9888389279985859), (6, 1.2127683959988644), (6, 2.1566827280003054)]",0.5561666503404549
solo,53,47,-3,16,anticlockwise,anticlockwise,correct,1.4699179119998007,ca,500,850,0,sure,1.017948337001144,rs,4.0,1.2235943529994984,6,"[(6, 0.0005030579995946027), (5, 0.5528318359974946), (4, 0.9204531340001267), (4, 1.2245428629976232)]",0.47859287145693735
solo,53,48,-3,8,anticlockwise,anticlockwise,correct,0.7369115130022692,ac,500,850,-10,risky,0.9709559520015318,sr,4.0,1.9140863579996221,2,"[(2, 0.0004825430005439557), (3, 0.7311970480004675), (4, 0.9710765729978448), (4, 1.915148935000616)]",0.40139597738655625
solo,53,49,3,32,clockwise,clockwise,correct,2.22263058200042,ca,500,590,0,sure,0.9899556609998399,sr,3.0,1.6442322740003874,1,"[(1, 0.0005741700006183237), (2, 1.005311745000654), (3, 1.1811592379999638), (3, 1.6450065479984914)]",0.43072304196972
solo,53,50,-3,8,anticlockwise,anticlockwise,correct,1.071248516000196,ca,500,1540,-10,risky,0.9551338359997317,rs,4.0,0.9711357929991209,3,"[(3, 0.0004862179994233884), (4, 0.620211550998647), (4, 0.9719557989992609)]",0.552944060435932
solo,53,51,3,16,clockwise,clockwise,correct,0.7479164270007459,ac,500,1400,10,risky,0.7248901689999911,rs,4.0,1.0858578019979177,3,"[(3, 0.0004886649985564873), (4, 0.49497241399876657), (4, 1.0866683999993256)]",0.4819215390915059
solo,53,52,-3,64,anticlockwise,anticlockwise,correct,1.1416039249997993,ca,500,590,10,sure,1.1678219530003844,sr,3.0,0.9505966110009467,3,"[(3, 0.0004835660001845099), (3, 0.9513873230025638)]",0.5852648099601622
solo,53,53,3,8,clockwise,clockwise,correct,0.6457239109986403,ca,500,550,10,sure,1.234261523000896,sr,4.0,1.047168713001156,4,"[(4, 0.00047754700062796474), (4, 1.048062049998407)]",0.5475736728841525
solo,53,54,3,64,anticlockwise,clockwise,wrong,1.9256033599995135,ca,500,590,0,sure,0.9122166369998013,sr,3.0,2.0171757790012634,6,"[(6, 0.00048469100147485733), (5, 1.1221340310003143), (4, 1.3780566889981856), (3, 1.5701994779992674), (3, 2.018189836999227)]",0.45866781522084943
solo,53,55,-3,16,anticlockwise,anticlockwise,correct,0.679192070998397,ac,500,640,10,sure,0.7384606240011635,rs,2.0,1.0835499599998002,1,"[(1, 0.0004841980007768143), (2, 0.764608114001021), (2, 1.084464386000036)]",0.507019785213441
solo,53,56,-3,32,anticlockwise,anticlockwise,correct,0.6151950800012855,ca,500,1540,0,risky,0.9331597869968391,sr,3.0,0.6942534900008468,3,"[(3, 0.00048275000153807923), (3, 0.6949608440008888)]",0.4929312857428906
solo,53,57,-3,8,anticlockwise,anticlockwise,correct,0.7717303669996909,ac,500,940,10,risky,1.3395180890001939,rs,5.0,1.9001869240019005,3,"[(3, 0.0005040939977334347), (4, 0.7973173099999258), (5, 1.1010992999981681), (5, 1.9010962399988784)]",0.4453651273539289
solo,53,58,3,32,anticlockwise,clockwise,wrong,1.8660610070000985,ca,500,940,10,sure,1.1095684219981194,rs,1.0,1.3920239649996802,3,"[(3, 0.0004960480000590906), (2, 0.7369693670007109), (1, 1.10507138000321), (1, 1.3927731270014192)]",0.43835042266033053
solo,53,59,-3,32,anticlockwise,anticlockwise,correct,0.8122024379990762,ca,500,1150,0,risky,1.1705908909971185,rs,2.0,1.4663792409992311,1,"[(1, 0.000499541998578934), (2, 1.0352116380017833), (2, 1.467244794999715)]",0.5540389971749111
solo,53,60,3,8,clockwise,clockwise,correct,0.97808004000035,ac,500,1150,0,risky,1.074129444998107,sr,5.0,1.8048336770007154,1,"[(1, 0.0005081240014987998), (2, 0.7336400319982204), (3, 0.9735971589980181), (4, 1.2457124419997854), (5, 1.5496877149998909), (5, 1.8055363339990436)]",0.5973424173607227
solo,53,61,-3,16,anticlockwise,anticlockwise,correct,0.7323727689981752,ca,500,770,-10,sure,0.8060056879985495,rs,4.0,1.4840589010018448,1,"[(1, 0.0005138439992151689), (2, 0.41292918600083794), (3, 0.7170616779985721), (4, 1.1491266209995956), (4, 1.4848151519981911)]",0.48307835020862044
solo,53,62,3,16,clockwise,clockwise,correct,1.0677916429995093,ac,500,700,10,risky,1.0470288819997222,sr,4.0,0.64303182599906,4,"[(4, 0.000478378999105189), (4, 0.6437960469993413)]",0.42019734461263636
solo,53,63,-3,64,anticlockwise,anticlockwise,correct,1.2317130730007193,ca,500,1540,10,risky,1.0775072950018512,sr,4.0,1.407205179999437,6,"[(6, 0.0004847679992963094), (5, 0.7522561389996554), (4, 1.0242324309983815), (4, 1.4078940299987153)]",0.5186282995819289
solo,53,64,3,64,clockwise,clockwise,correct,1.762200799999846,ca,500,1540,-10,risky,1.0267937869975867,sr,2.0,0.8318038629986404,2,"[(2, 0.00047289500071201473), (2, 0.8327590949993464)]",0.4079925569820354
solo,53,65,3,8,clockwise,clockwise,correct,0.6642311319992587,ac,500,640,0,sure,1.428237550000631,rs,3.0,0.9125853599980474,3,"[(3, 0.00048293500003637746), (3, 0.913428080999438)]",0.43838959492750507
solo,53,66,-3,64,anticlockwise,anticlockwise,correct,3.605070929002977,ac,500,640,10,sure,0.9239853960025357,rs,1.0,0.7808747970011609,1,"[(1, 0.0005254200004856102), (1, 0.7818853649987432)]",0.45407264898471733
solo,53,67,-3,8,anticlockwise,anticlockwise,correct,1.0277512230022694,ac,500,770,10,risky,0.801704293997318,sr,6.0,1.3992132769999444,3,"[(3, 0.00047767499927431345), (4, 0.600130907001585), (5, 0.9202299050011788), (6, 1.1602581060033117), (6, 1.4000254630009294)]",0.5116698344008638
solo,53,68,-3,16,anticlockwise,anticlockwise,correct,0.771684028000891,ac,500,1400,0,risky,0.81195674799892,rs,5.0,1.5683924330005539,5,"[(5, 0.0004987450010958128), (5, 1.5692492390007828)]",0.5854921909382838
solo,53,69,-3,32,anticlockwise,anticlockwise,correct,0.8717550849978579,ca,500,550,0,sure,1.500418693998654,sr,3.0,1.2856818889995338,1,"[(1, 0.0005004060003557242), (2, 0.7585035279989825), (3, 1.014735793996806), (3, 1.286441793999984)]",0.5292705499758309
solo,53,70,3,32,clockwise,clockwise,correct,0.791291743000329,ca,500,550,10,sure,1.1030178690016328,rs,4.0,1.736695364001207,1,"[(1, 0.0005038750023231842), (2, 0.793687207999028), (3, 1.0495118039980298), (4, 1.273574369999551), (4, 1.7376320229996054)]",0.5555696057413557
solo,53,71,3,16,clockwise,clockwise,correct,0.6629982150006981,ca,500,940,0,risky,1.0278387690013915,sr,5.0,1.4565682289976394,1,"[(1, 0.0004787990001204889), (2, 0.4496479769986763), (3, 0.6735166479993495), (4, 0.8336156400000618), (5, 1.0895109839984798), (5, 1.457517751998239)]",0.5816886627597696
solo,53,72,3,64,clockwise,clockwise,correct,2.8916051240012166,ac,500,850,0,sure,0.9427973439997004,sr,4.0,1.326535837000847,3,"[(3, 0.0005168679999769665), (4, 0.767662302001554), (4, 1.327461642002163)]",0.5337692239075826
solo,53,73,3,16,clockwise,clockwise,correct,0.8927670220000437,ca,500,1040,0,risky,0.9763567790032539,sr,4.0,0.6230875490000471,4,"[(4, 0.00047824600187595934), (4, 0.6240972499981581)]",0.5652205562497303
solo,53,74,3,32,clockwise,clockwise,correct,0.8739994690004096,ac,500,850,10,sure,0.9422147690020211,rs,3.0,1.1826163229998201,1,"[(1, 0.00048246699952869676), (2, 0.6554638529996737), (3, 0.8956362399985665), (3, 1.1834680089996255)]",0.5545857964919534
solo,53,75,3,8,clockwise,clockwise,correct,0.8225576799995906,ca,500,770,-10,risky,1.3569205370004056,sr,5.0,1.581070650001493,1,"[(1, 0.0004804499985766597), (2, 0.6061142079997808), (3, 0.8458758599990688), (4, 1.0700899539988313), (5, 1.294057230999897), (5, 1.5819980929991289)]",0.4794166198240053
solo,53,76,-3,64,clockwise,anticlockwise,wrong,1.108274957001413,ca,500,850,10,sure,1.0395876849979686,sr,3.0,1.3237145979983325,6,"[(6, 0.0004798320005647838), (5, 0.6368417080011568), (4, 0.8607992209981603), (3, 1.0843942879982933), (3, 1.3245593649990042)]",0.4943791273598722
solo,53,77,-3,16,anticlockwise,anticlockwise,correct,0.9395057959991391,ac,500,590,0,sure,0.7969967289973283,rs,2.0,1.250687237999955,4,"[(4, 0.0004909140006930102), (3, 0.7077798110003641), (2, 1.011695409000822), (2, 1.2515694360008638)]",0.5770806992069807
solo,53,78,-3,32,anticlockwise,anticlockwise,correct,2.1668885440012673,ca,500,1400,0,risky,0.919255853001232,rs,2.0,1.384546084998874,1,"[(1, 0.00048314100058632903), (2, 1.0815009079997253), (2, 1.3852774980005051)]",0.5269036700649822
solo,53,79,3,64,anticlockwise,clockwise,wrong,1.04974704399865,ca,500,1270,10,risky,0.9834065149989328,sr,3.0,1.1734496259996376,2,"[(2, 0.00048151499868254177), (3, 0.9665968100016471), (3, 1.1743654370002332)]",0.45547842925952653
solo,53,80,-3,8,anticlockwise,anticlockwise,correct,0.6677764660016692,ca,500,1270,10,risky,1.0807265370021923,sr,4.0,0.5304792069982796,4,"[(4, 0.00048286799938068725), (4, 0.5314266669993231)]",0.5427455397879722
solo,53,81,3,16,clockwise,clockwise,correct,0.6799191799982509,ca,500,850,-10,risky,0.9315587700002652,sr,4.0,1.220063641998422,6,"[(6, 0.0004741080010717269), (5, 0.5654249589970277), (4, 0.9974529089995485), (4, 1.2212203629969736)]",0.4021228421883409
solo,53,82,-3,8,anticlockwise,anticlockwise,correct,0.6363239889979013,ca,500,1150,0,risky,0.9060488139984955,sr,5.0,0.5244967369981168,5,"[(5, 0.00048465299914823845), (5, 0.5254131610017794)]",0.4491157345812803
solo,53,83,3,32,clockwise,clockwise,correct,2.2355160049992264,ac,500,1400,10,sure,1.4161592700002075,sr,5.0,0.6784528870011854,5,"[(5, 0.0004901899992546532), (5, 0.6794097180027165)]",0.5717214578431642
solo,53,84,-3,16,clockwise,anticlockwise,wrong,1.0091151430024183,ca,500,1040,10,sure,1.2148507819983934,sr,1.0,1.380660987997544,4,"[(4, 0.00047712199739180505), (3, 0.6300413710014254), (2, 0.9018871139996918), (1, 1.1900100659986492), (1, 1.3818572999989556)]",0.5122334825638236
solo,53,85,-3,64,anticlockwise,anticlockwise,correct,2.6279344049980864,ac,500,1400,0,sure,1.5855607979974593,sr,4.0,0.9846006509978906,6,"[(6, 0.0005082160023448523), (5, 0.40969238999969093), (4, 0.6974980679988221), (4, 0.9853848319980898)]",0.5053338752988116
solo,53,86,-3,32,anticlockwise,anticlockwise,correct,0.9354407270002412,ca,500,700,0,sure,1.1287718710009358,sr,3.0,1.3775485519981885,6,"[(6, 0.0005126370015204884), (5, 0.5785688290015969), (4, 0.8024606250000943), (3, 1.0424368050007615), (3, 1.3783155960009026)]",0.5256446637025894
solo,53,87,3,64,clockwise,clockwise,correct,2.0322615039985976,ac,500,1040,-10,sure,1.2372176500030037,sr,5.0,0.5225161720009055,5,"[(5, 0.0005484959983732551), (5, 0.5234599180002988)]",0.5407595895296199
solo,53,88,3,8,clockwise,clockwise,correct,0.76170139000169,ca,500,850,10,risky,0.7700088519995916,sr,6.0,1.5294864399984363,2,"[(2, 0.0004907129987259395), (3, 0.4902797009999631), (4, 0.7141785249987151), (5, 0.9384029760003614), (6, 1.290301389999513), (6, 1.5303848769981414)]",0.5697984780160731
solo,53,89,-3,16,anticlockwise,anticlockwise,correct,2.7207151830007206,ac,500,1150,10,sure,2.4266532709989406,rs,3.0,1.3919270330006839,4,"[(4, 0.0004893830009677913), (3, 0.9128647389989055), (3, 1.3927820669996436)]",0.5453040839876503
solo,53,90,3,32,clockwise,clockwise,correct,1.0257755060010822,ca,500,1270,-10,sure,0.7515476609987672,rs,3.0,0.6794238789989322,3,"[(3, 0.0004936210025334731), (3, 0.6804729590003262)]",0.42446622445911314
solo,53,91,3,64,anticlockwise,clockwise,wrong,0.7913541070010979,ca,500,1400,-10,sure,1.278164299998025,sr,3.0,1.3615922819990374,4,"[(4, 0.00048071399942273274), (5, 0.3866304319999472), (4, 0.8825883270001214), (3, 1.1546199959993828), (3, 1.3623684939993836)]",0.4045413631962756
solo,53,92,-3,64,anticlockwise,anticlockwise,correct,0.9591070999995281,ac,500,1150,10,risky,0.830621314002201,sr,5.0,0.5638573020005424,5,"[(5, 0.00048199299999396317), (5, 0.5646241469985398)]",0.5706262665263047
solo,53,93,3,8,clockwise,clockwise,correct,0.6758080850013357,ca,500,1400,0,risky,0.6391049839985499,rs,6.0,1.627173181001126,1,"[(1, 0.0004849149991059676), (2, 0.6039772379990609), (3, 0.8280663600016851), (4, 1.0199503559997538), (5, 1.115977617999306), (6, 1.3559546440010308), (6, 1.6279041650013824)]",0.5151226931121574
solo,53,94,-3,32,anticlockwise,anticlockwise,correct,1.141393240999605,ca,500,770,-10,sure,2.2062144430019544,rs,4.0,0.6368940440006554,4,"[(4, 0.00048330799836548977), (4, 0.6376808700006222)]",0.41098274452753447
solo,53,95,-3,8,anticlockwise,anticlockwise,correct,0.7260724920015491,ca,500,640,10,risky,1.5039676209999016,sr,2.0,0.2178467930025363,2,"[(2, 0.0005012970032112207), (2, 0.21896337599901017)]",0.5967354128498955
solo,53,96,3,16,clockwise,clockwise,correct,0.6617830280010821,ac,500,1270,0,risky,0.801740119997703,rs,5.0,1.1598384570024791,3,"[(3, 0.00049446400225861), (4, 0.6648613549987203), (5, 0.952813187999709), (5, 1.1607155169986072)]",0.5737027096030265
