task,id,trial,order,ori_mean,ori_var,judge,answer,result,judge_rt,line_pos,payoff_solo,payoff_jitter,payoff_group,choice,choice_rt,option_pos,rating,rating_rt,rating_init,rating_history,iti
group,21,1,post,3,16,clockwise,clockwise,correct,0.8808784590000869,ca,850,-10,500,solo,5.7004267379998055,gs,2.0,1.5270813319984882,2,"[(2, 0.0003791330000240123), (2, 1.52795551500094)]",0.43913704823038024
group,21,2,post,-3,16,anticlockwise,anticlockwise,correct,0.8003333360011311,ca,700,10,500,solo,1.2072960200002854,sg,3.0,1.1326437269999587,3,"[(3, 0.0005087729987280909), (3, 1.1335394420002558)]",0.4892065859741969
group,21,3,post,3,8,anticlockwise,clockwise,wrong,0.8061923999994178,ac,550,-10,500,solo,0.9893872909997299,gs,1.0,0.5711676199989597,1,"[(1, 0.00048204699851339683), (1, 0.5724884909996035)]",0.5168969978066038
group,21,4,pre,-3,16,anticlockwise,anticlockwise,correct,0.9351463170005445,ca,550,0,500,group,2.2152232770004048,sg,5.0,2.0241010399986408,4,"[(4, 0.00048558099842921365), (5, 1.4650434899995162), (5, 2.024980919999507)]",0.4756391776949936
group,21,5,post,3,32,anticlockwise,clockwise,wrong,1.1511527679995197,ca,640,0,500,group,4.504277480999008,gs,5.0,1.2588993670015043,4,"[(4, 0.0004900620006083045), (5, 0.7477937559997372), (5, 1.2597474419999344)]",0.4725640272493953
group,21,6,post,-3,8,anticlockwise,anticlockwise,correct,0.734950760999709,ca,1400,0,500,solo,0.8082528430004459,sg,1.0,1.9343921309991856,6,"[(6, 0.00047918600103002973), (5, 0.831489956999576), (4, 0.9752536670002883), (3, 1.1352872820007178), (2, 1.4713353990009637), (1, 1.631171204000566), (1, 1.7432271769994259), (1, 1.9352393720000691)]",0.49665347499970103
group,21,7,post,-3,64,anticlockwise,anticlockwise,correct,0.856923426999856,ca,940,0,500,group,1.245701009998811,gs,5.0,1.2810790519997681,3,"[(3, 0.0006018120002408978), (4, 0.7699963030008803), (5, 0.9460453520005103), (5, 1.281997552001485)]",0.4869567324465114
group,21,8,post,-3,32,anticlockwise,anticlockwise,correct,0.6446001589993102,ac,940,0,500,solo,0.6569457720015635,sg,1.0,2.4286288490002335,5,"[(5, 0.000498112998684519), (4, 1.021711597999456), (3, 1.149549837999075), (2, 1.3415921999985585), (1, 1.66162630999861), (1, 2.42945006699847)]",0.519037747166004
group,21,9,post,3,64,anticlockwise,clockwise,wrong,1.9523124329989514,ac,1400,-10,500,solo,1.0489929309987929,gs,3.0,3.7813017739990755,5,"[(5, 0.0005066330013505649), (4, 1.0622487870004989), (3, 3.5261984080007096), (3, 3.782058816999779)]",0.5651583764191275
group,21,10,post,3,8,anticlockwise,clockwise,wrong,0.7883714260005945,ca,590,10,500,solo,2.1085630480010877,sg,5.0,3.2141258799983916,2,"[(2, 0.0005019729997002287), (3, 1.2630924040004174), (4, 1.7431640319991857), (5, 2.0631454859994847), (5, 3.215070188000027)]",0.5018444423452185
group,21,11,post,-3,32,anticlockwise,anticlockwise,correct,0.7588860060004663,ca,700,0,500,solo,1.9360882890014182,sg,3.0,2.057048879998547,3,"[(3, 0.0005041579988755984), (3, 2.0579817990001175)]",0.438903113765467
group,21,12,post,3,64,clockwise,clockwise,correct,0.8729818890005845,ac,940,10,500,group,0.861860679999154,gs,6.0,1.5050590709997778,5,"[(5, 0.0004844289996981388), (6, 1.2819053069997608), (6, 1.505894267000258)]",0.5989555219327025
group,21,13,post,3,32,clockwise,clockwise,correct,0.8759551789989928,ca,550,-10,500,group,1.1524282660011522,gs,4.0,1.271811066999362,4,"[(4, 0.0005139179993420839), (4, 1.2727798390005773)]",0.5001744172359652
group,21,14,pre,-3,64,anticlockwise,anticlockwise,correct,0.8193989480005257,ca,1150,10,500,group,2.180728490000547,sg,6.0,1.5284254470007,4,"[(4, 0.0005162449997442309), (5, 1.129521217000729), (6, 1.2733896339996136), (6, 1.3693086359999143), (6, 1.529335772000195)]",0.546450786021365
group,21,15,post,-3,64,anticlockwise,anticlockwise,correct,0.718454109999584,ac,1150,10,500,solo,0.6482441219995962,sg,3.0,2.1797619459994166,6,"[(6, 0.0006952559997444041), (5, 0.7726680060004583), (4, 0.9167583849994116), (3, 1.0767588729995623), (2, 1.2687713069990423), (3, 1.8446642939998128), (3, 2.180552615000124)]",0.5907027368108321
group,21,16,post,-3,16,anticlockwise,anticlockwise,correct,0.8966288459996576,ca,550,10,500,solo,0.9628759679999348,sg,2.0,3.1868204639995383,3,"[(3, 0.0004890420004812768), (2, 2.259770077000212), (3, 2.483672452000974), (2, 2.9637757769996824), (2, 3.1877753230000963)]",0.5814005063179022
group,21,17,post,3,16,clockwise,clockwise,correct,0.7320927069995378,ca,770,-10,500,solo,1.0615152399986982,gs,2.0,0.8980260270000144,2,"[(2, 0.0004798930003744317), (2, 0.8989914399990084)]",0.45366534195664443
group,21,18,post,-3,8,anticlockwise,anticlockwise,correct,0.6286663339997176,ac,700,0,500,solo,0.8013872010014893,gs,2.0,1.3352978930015524,5,"[(5, 0.0004897979997622315), (4, 0.8081058050011052), (3, 0.9522176460013725), (2, 1.0802110870008619), (2, 1.3362776710000617)]",0.49059733889385976
group,21,19,post,3,16,clockwise,clockwise,correct,0.6950925199998892,ca,1400,10,500,solo,0.9299120260002383,sg,1.0,2.0821753880009055,2,"[(2, 0.0004951299997628666), (1, 1.7951799069996923), (1, 2.083177157999671)]",0.5425422396411854
group,21,20,post,3,32,anticlockwise,clockwise,wrong,0.8500937110002269,ca,1270,-10,500,solo,1.1433679340007075,sg,2.0,1.9990536519999296,1,"[(1, 0.0004785900000570109), (2, 1.008094622000499), (2, 1.9999490909995075)]",0.5895458669741483
group,21,21,post,3,8,clockwise,clockwise,correct,0.5806706369985477,ca,850,-10,500,solo,0.7394336590004968,gs,2.0,1.517227479000212,6,"[(6, 0.0005050630006735446), (5, 0.6220865539999068), (4, 0.7661525069997879), (3, 0.8939993599997251), (2, 1.3581513190001715), (2, 1.518017181999312)]",0.5512907834789537
group,21,22,post,-3,32,anticlockwise,anticlockwise,correct,0.6150981720002164,ca,1150,-10,500,solo,0.612212902000465,sg,2.0,0.8819420790005097,3,"[(3, 0.00048680699910619296), (2, 0.5149993060003908), (2, 0.8827458510004362)]",0.4909108569538658
group,21,23,pre,-3,64,anticlockwise,anticlockwise,correct,0.7809227660000033,ca,1270,0,500,solo,1.0731216099993617,gs,5.0,2.8675337309996394,1,"[(1, 0.0005312470002536429), (2, 2.0205971319992386), (3, 2.1967019160001655), (4, 2.3565317789998517), (5, 2.4525613839996367), (5, 2.8685194509998837)]",0.4999274019706218
group,21,24,post,-3,16,anticlockwise,anticlockwise,correct,0.9202809660000639,ca,940,-10,500,solo,2.1383516940004483,gs,3.0,1.4034549129992229,6,"[(6, 0.0004917850001220359), (5, 0.5888252130007459), (4, 0.7488414159997774), (3, 0.9088106550007069), (3, 1.4047261329997127)]",0.4904105977665651
group,21,25,post,-3,64,anticlockwise,anticlockwise,correct,1.340658290000647,ac,850,-10,500,solo,0.6388811960005114,sg,3.0,1.9787671209996915,2,"[(2, 0.00048030699872469995), (3, 0.6199672490001831), (2, 1.260133637000763), (3, 1.8200053820000903), (3, 1.9800471800008381)]",0.43051566969863864
group,21,26,post,-3,8,anticlockwise,anticlockwise,correct,0.7373290630002884,ac,550,0,500,group,1.0026337069994042,sg,2.0,2.680982394998864,2,"[(2, 0.0005588990006799577), (2, 2.681810352998582)]",0.5364145183230856
group,21,27,post,3,64,anticlockwise,clockwise,wrong,0.581011607999244,ca,850,10,500,solo,0.5486223189982411,sg,3.0,0.7718592889996216,3,"[(3, 0.0004884570007561706), (3, 0.7725571739993029)]",0.49963058498726454
group,21,28,post,-3,16,anticlockwise,anticlockwise,correct,0.6494892170012463,ca,1400,-10,500,solo,0.598512047999975,sg,2.0,1.5880299749987898,6,"[(6, 0.0005004699996788986), (5, 0.6131165589995362), (4, 0.7570460909992107), (3, 0.9650409040004888), (2, 1.4290443520003464), (2, 1.5888027639994107)]",0.5784330754769764
group,21,29,post,-3,8,anticlockwise,anticlockwise,correct,0.7166559969991795,ca,940,-10,500,solo,1.0162286129998392,gs,2.0,0.7730621529990458,3,"[(3, 0.00047151999933703337), (2, 0.6461760040001536), (2, 0.7738668020010664)]",0.44848076450327906
group,21,30,post,3,8,clockwise,clockwise,correct,0.7326509389986313,ac,770,-10,500,solo,0.8697819039989554,sg,2.0,1.129206019000776,3,"[(3, 0.0005117649998283014), (2, 0.9381762679986423), (2, 1.130139810999026)]",0.5156950594363165
group,21,31,post,3,32,clockwise,clockwise,correct,0.7224433720002708,ac,1400,10,500,solo,0.5721100259997911,sg,1.0,0.860343649999777,1,"[(1, 0.0005015219994675135), (1, 0.8611370329999772)]",0.5147854377038091
group,21,32,pre,3,8,clockwise,clockwise,correct,1.0087196369986486,ac,700,10,500,group,3.5122215369992773,gs,6.0,1.8711966540013236,3,"[(3, 0.0005097630000818754), (4, 1.0721256169999833), (5, 1.2321787090004364), (6, 1.6641259770003671), (6, 1.8719321860007767)]",0.5596307091669002
group,21,33,post,-3,32,clockwise,anticlockwise,wrong,0.7130127599994012,ac,1270,0,500,solo,0.7545193419991847,gs,2.0,1.8193845900004817,5,"[(5, 0.0005403819995990489), (4, 0.8441670430001977), (3, 1.0683388939996803), (2, 1.5964171579998947), (2, 1.8202375040000334)]",0.5633436725432927
group,21,34,post,3,64,clockwise,clockwise,correct,0.6165271280005982,ca,550,10,500,solo,1.7990510700001323,sg,3.0,1.9411509059991658,4,"[(4, 0.0005139360000612214), (3, 1.126070714000889), (3, 1.94205407499976)]",0.52029306454253
group,21,35,post,3,16,anticlockwise,clockwise,wrong,0.6094169389998569,ac,940,-10,500,solo,0.7828032850011368,sg,2.0,0.7102144380005484,2,"[(2, 0.0005196729998715455), (2, 0.7109443930003181)]",0.42159576172220925
group,21,36,post,-3,64,anticlockwise,anticlockwise,correct,0.7720172129993443,ac,500,0,500,group,3.6753565300004993,gs,4.0,2.9584796449998976,6,"[(6, 0.0005025049995310837), (5, 1.519456687001366), (4, 2.0952866509996966), (4, 2.9592496390014276)]",0.41132834732961987
group,21,37,post,3,64,anticlockwise,clockwise,wrong,0.507855796999138,ac,700,0,500,solo,1.1511205730002985,sg,2.0,0.9354436810008337,2,"[(2, 0.0005134319999342551), (2, 0.93623502400078)]",0.5564756776262834
group,21,38,post,3,8,anticlockwise,clockwise,wrong,0.5237650779999967,ca,1270,10,500,group,0.23775831000057224,gs,4.0,0.29881434100025217,4,"[(4, 0.0004887970007985132), (4, 0.2998807910007599)]",0.41317161674840897
group,21,39,post,-3,16,anticlockwise,anticlockwise,correct,0.34040609000112454,ac,590,-10,500,solo,0.04679507899891178,gs,6.0,0.018577382999865222,6,"[(6, 0.00048622899885231163), (6, 0.019371877000594395)]",0.5165569371326748
group,21,40,post,3,16,anticlockwise,clockwise,wrong,0.5681829009990906,ac,700,-10,500,group,0.8241784230012854,sg,3.0,1.5498776360000193,1,"[(1, 0.0005021670003770851), (2, 1.0067409420007607), (3, 1.2946092570000474), (3, 1.5506997499996942)]",0.4917460608458817
group,21,41,post,-3,8,anticlockwise,anticlockwise,correct,0.9038234050003666,ac,770,10,500,solo,0.8268408610001643,gs,3.0,0.7837866480003868,5,"[(5, 0.00047697400077595375), (4, 0.43285523899976397), (3, 0.5926579999995738), (3, 0.7846362950003822)]",0.4475019240818515
group,21,42,post,-3,64,anticlockwise,anticlockwise,correct,0.6107840770000621,ac,1270,-10,500,solo,0.5609069889997045,gs,3.0,0.6883563510000386,5,"[(5, 0.0005030789998272667), (4, 0.40112836899970716), (3, 0.5291584079986933), (3, 0.689252010999553)]",0.5910800880404725
group,21,43,post,3,32,clockwise,clockwise,correct,0.5712847340000735,ca,1040,0,500,solo,0.41068494300088787,gs,4.0,1.088201687000037,3,"[(3, 0.00047777600047993474), (4, 0.9131308399992122), (4, 1.0890333989991632)]",0.5396376062871782
group,21,44,post,-3,32,clockwise,anticlockwise,wrong,0.40035145499859937,ac,1040,10,500,group,1.4943371720000869,gs,4.0,1.0562966960005724,6,"[(6, 0.0004807739987882087), (5, 0.5613228229995002), (4, 0.753307961000246), (4, 1.057034804000068)]",0.40581511649751917
group,21,45,pre,3,32,clockwise,clockwise,correct,0.6325477589998627,ca,850,0,500,group,1.817683510000279,sg,5.0,1.493242086000464,3,"[(3, 0.0004835420004383195), (4, 1.1262310609999986), (5, 1.2860066979992553), (5, 1.493983861999368)]",0.4852984901110068
group,21,46,post,-3,16,anticlockwise,anticlockwise,correct,1.1178389590004372,ac,1150,-10,500,solo,0.999571147000097,gs,3.0,0.9974749979992339,1,"[(1, 0.00047309799992945045), (2, 0.5345839999990858), (3, 0.7424253369990765), (3, 0.9984334740001941)]",0.566063929219414
group,21,47,pre,-3,16,anticlockwise,anticlockwise,correct,0.7055628130001423,ca,1400,10,500,group,0.5609322619984596,sg,4.0,0.8269920260008803,3,"[(3, 0.0005025400005251868), (4, 0.7319827960000111), (4, 0.8278962339991267)]",0.4807709350863687
group,21,48,post,3,8,clockwise,clockwise,correct,0.4842811589987832,ac,1150,10,500,group,0.5996012890009297,gs,4.0,1.0136337929998263,5,"[(5, 0.0004836890002479777), (4, 0.7907385130001785), (4, 1.0144753369986574)]",0.41889062603044513
group,21,49,post,3,64,clockwise,clockwise,correct,0.6569800389988814,ac,590,10,500,group,0.7966195060016616,sg,5.0,2.035988528999951,2,"[(2, 0.00047952899876690935), (3, 0.5491729320001468), (4, 0.9648157770006947), (5, 1.1088654470004258), (5, 2.03678377200049)]",0.5787164508926494
group,21,50,post,-3,8,clockwise,anticlockwise,wrong,0.34303818499938643,ac,1270,-10,500,group,0.7673927479991107,gs,5.0,2.3757023479993222,6,"[(6, 0.0004943300009472296), (5, 0.6968816959997639), (5, 2.3766825629991217)]",0.549886523658538
group,21,51,post,3,32,clockwise,clockwise,correct,2.1927674480011774,ac,770,0,500,group,0.6079804870005319,gs,5.0,0.8141374010010622,6,"[(6, 0.0004863659996772185), (5, 0.5431452860011632), (5, 0.8150022760000866)]",0.44759180757251643
group,21,52,post,3,16,clockwise,clockwise,correct,0.484367058999851,ac,590,0,500,group,0.7283945409999433,sg,4.0,1.0881937210015167,2,"[(2, 0.0004765329995279899), (3, 0.6415354410000873), (4, 0.7534624839991011), (4, 1.089439647999825)]",0.48917749013132505
group,21,53,post,-3,64,clockwise,anticlockwise,wrong,0.36065023000082874,ac,640,-10,500,solo,0.43338735200086376,sg,3.0,0.7574495250009932,3,"[(3, 0.0005291180004860507), (3, 0.7582907870000781)]",0.5882451573223373
group,21,54,post,-3,32,clockwise,anticlockwise,wrong,0.5126810389992897,ac,770,0,500,solo,0.6268041219991574,gs,3.0,1.1990171639990876,6,"[(6, 0.0005088629986857995), (5, 0.49577766900074494), (4, 0.6238765329999296), (3, 0.7679296620008245), (3, 1.1997813260004477)]",0.4255819525464401
group,21,55,post,-3,8,anticlockwise,anticlockwise,correct,3.1441532150001876,ca,500,10,500,group,0.8974243789998582,sg,4.0,1.2512035179988743,2,"[(2, 0.0004965879998053424), (3, 0.7561914910002088), (4, 0.9802073460014071), (4, 1.252142958001059)]",0.5484242228769686
group,21,56,pre,3,8,anticlockwise,clockwise,wrong,0.7065607740005362,ca,500,10,500,group,7.011987820998911,gs,4.0,0.9564990409999155,2,"[(2, 0.0005136870004207594), (3, 0.6374331370006985), (4, 0.7814948160012136), (4, 0.9573752550004428)]",0.5048751167654353
group,21,57,post,-3,64,anticlockwise,anticlockwise,correct,0.554948068000158,ca,700,0,500,solo,0.4435090229999332,gs,3.0,1.1516752660008933,3,"[(3, 0.00048700499974074773), (4, 0.2726724509993801), (3, 0.8647363039999618), (3, 1.1525655789992015)]",0.5588169136783347
group,21,58,post,3,8,clockwise,clockwise,correct,0.871360041999651,ac,940,0,500,solo,0.9546169900004315,gs,3.0,0.5069935339997755,3,"[(3, 0.00047232999895641115), (3, 0.5076760779993492)]",0.5308917670358329
group,21,59,post,-3,32,clockwise,anticlockwise,wrong,0.9757953399985126,ac,550,-10,500,group,1.039842204998422,sg,4.0,0.7323631170002045,4,"[(4, 0.0005093029994895915), (4, 0.7332249190003495)]",0.43655756596746603
group,21,60,post,-3,16,anticlockwise,anticlockwise,correct,1.4443847769998683,ca,500,10,500,group,1.1375430350017268,gs,5.0,1.3216700779994426,2,"[(2, 0.0006194719990162412), (3, 0.6346761739987414), (4, 0.7945491369991942), (5, 0.9067407339989586), (5, 1.3224925089998578)]",0.5415483972885066
group,21,61,post,3,32,clockwise,clockwise,correct,0.510144546000447,ac,940,0,500,solo,1.2327265639996767,gs,3.0,1.28464599399922,6,"[(6, 0.000505236001117737), (5, 0.6296982509993541), (4, 0.7576390270005504), (3, 1.141536711000299), (3, 1.285522303000107)]",0.4532287052303809
group,21,62,post,3,16,clockwise,clockwise,correct,0.7615450430002966,ac,1150,10,500,solo,1.8423429909998958,sg,3.0,1.3429733619996114,5,"[(5, 0.0005036610000388464), (4, 0.7841403509992233), (3, 1.1199549409993779), (3, 1.3438683919994219)]",0.46158014104419803
group,21,63,post,3,64,anticlockwise,clockwise,wrong,0.9775492480002868,ca,640,0,500,group,1.0584137629994075,sg,4.0,0.9898508559999755,1,"[(1, 0.000516412999786553), (2, 0.43089184000018577), (3, 0.574756972000614), (4, 0.7028772040011972), (4, 0.99065857000096)]",0.42295422874435096
group,21,64,post,-3,32,anticlockwise,anticlockwise,correct,1.2942150519993447,ca,1400,10,500,solo,1.0738425920008012,sg,3.0,0.4770630729999539,3,"[(3, 0.0005031180007790681), (3, 0.4779562080002506)]",0.4475554748145885
group,21,65,post,3,16,anticlockwise,clockwise,wrong,2.178665073999582,ca,500,-10,500,group,1.8111673350013007,gs,5.0,1.0557151450011588,2,"[(2, 0.000479484999232227), (3, 0.46480477700060874), (4, 0.5925631819991395), (5, 0.6885830709998118), (5, 1.0566447319997678)]",0.42778034115838415
group,21,66,post,-3,16,anticlockwise,anticlockwise,correct,2.7819009840004583,ca,770,10,500,group,1.5407485119994817,sg,5.0,0.5889363450005476,5,"[(5, 0.0005158670010132482), (5, 0.5897550259996933)]",0.49101215533475384
group,21,67,post,-3,64,clockwise,anticlockwise,wrong,0.42854525400071,ac,590,10,500,group,1.458071163000568,sg,4.0,0.8461213520004094,5,"[(5, 0.0005011260000173934), (4, 0.6870155610013171), (4, 0.8469225680000818)]",0.4896563074364102
group,21,68,post,-3,8,clockwise,anticlockwise,wrong,1.0915596740014735,ac,1150,-10,500,solo,1.054323034000845,gs,3.0,2.153842445000919,5,"[(5, 0.0005316679998941254), (4, 1.6267857029997685), (3, 1.786902227999235), (3, 2.1548422889991343)]",0.47717217770700787
group,21,69,pre,3,64,anticlockwise,clockwise,wrong,1.2524342309989152,ca,640,0,500,group,6.010787909999635,gs,5.0,1.1283410189989809,4,"[(4, 0.0005126039995957399), (5, 0.1372023050007556), (5, 1.1293439150013)]",0.42165039477875854
group,21,70,post,3,8,anticlockwise,clockwise,wrong,1.7954146560005029,ac,640,-10,500,group,0.9787549329994363,gs,4.0,0.8175890330003313,4,"[(4, 0.0005045800007792423), (4, 0.818603557001552)]",0.4461625864668215
group,21,71,post,3,64,anticlockwise,clockwise,wrong,0.5837227840002015,ac,1040,10,500,solo,1.1429411879998952,gs,3.0,0.9894274369999039,6,"[(6, 0.0005546409993257839), (5, 0.544083333999879), (4, 0.6882659439997951), (3, 0.8161824500002695), (3, 0.9921550960007153)]",0.493060670514209
group,21,72,post,3,32,clockwise,clockwise,correct,1.6491287739991094,ac,700,10,500,group,0.8855900790003943,sg,4.0,0.8091281670003809,5,"[(5, 0.0005020139997213846), (4, 0.6984596149995923), (4, 0.8099465369996324)]",0.4063219188070161
group,21,73,pre,-3,8,anticlockwise,anticlockwise,correct,2.615890709999803,ac,590,0,500,group,2.2504399120007292,gs,4.0,2.2452148150005087,1,"[(1, 0.00047922299927449785), (1, 0.8863555799998721), (2, 1.2542270080011804), (3, 1.6860430800006725), (4, 1.8139480070003628), (4, 2.2460477790009463)]",0.49338497236168766
group,21,74,post,-3,8,anticlockwise,anticlockwise,correct,0.820624914000291,ac,590,0,500,group,0.843116206000559,gs,4.0,0.6548733250001533,4,"[(4, 0.0004959040015819483), (4, 0.6557376430009754)]",0.4312455882005523
group,21,75,post,3,64,anticlockwise,clockwise,wrong,2.3139726930003235,ac,1270,0,500,solo,0.8690846750014316,sg,1.0,0.5997956610008259,1,"[(1, 0.00048510499982512556), (1, 0.6007232590000058)]",0.5475268477334134
group,21,76,post,3,16,clockwise,clockwise,correct,0.5818547710005078,ac,1040,0,500,group,1.077268887000173,sg,4.0,2.7682288509986392,1,"[(1, 0.0005071949999546632), (2, 1.521336023000913), (3, 2.0491763330010144), (4, 2.3052719389997947), (4, 2.769150609999997)]",0.5075179611362526
group,21,77,post,3,8,anticlockwise,clockwise,wrong,2.5362366929985,ca,1400,-10,500,solo,0.8261736149997887,gs,4.0,1.599022114998661,4,"[(4, 0.00051014199925703), (4, 1.5998499289999017)]",0.5195442797151545
group,21,78,post,3,32,clockwise,clockwise,correct,0.41928279499916243,ac,850,10,500,group,0.9854949059990759,gs,4.0,1.0957469509994553,2,"[(2, 0.00047744800031068735), (3, 0.6171064770005614), (4, 0.8090597160007746), (4, 1.0969454210007825)]",0.5489967835375971
group,21,79,post,-3,32,clockwise,anticlockwise,wrong,0.9988050449992443,ac,500,0,500,group,1.7968268999993597,sg,5.0,0.8513144489988917,5,"[(5, 0.000487280000015744), (5, 0.8522328519993607)]",0.407887760237912
group,21,80,post,-3,64,clockwise,anticlockwise,wrong,1.2705006889991637,ac,550,0,500,group,1.1150297750009486,sg,5.0,1.2364769760006311,6,"[(6, 0.000525483001183602), (5, 0.7893415529997583), (5, 1.2373012690004543)]",0.5322478202892477
group,21,81,post,-3,16,clockwise,anticlockwise,wrong,2.13574560699999,ac,1040,0,500,group,1.3534044940006424,gs,4.0,1.3373650639987318,6,"[(6, 0.0005010020013287431), (5, 0.8743931429999066), (4, 1.0822948469995026), (4, 1.3382799629998772)]",0.5487242058237954
group,21,82,post,-3,16,anticlockwise,anticlockwise,correct,0.5726239050000004,ca,1270,10,500,solo,0.5566483229995356,sg,3.0,0.7968434809990868,5,"[(5, 0.0004757799997605616), (4, 0.47792076599944266), (3, 0.6216208000005281), (3, 0.7976543829990987)]",0.45955411361849496
group,21,83,post,3,16,anticlockwise,clockwise,wrong,1.1517528510012198,ca,1270,0,500,solo,0.5366621009998198,sg,2.0,1.2410073529990768,5,"[(5, 0.0004944749998685438), (4, 0.5701098320005258), (3, 0.7299233250014368), (2, 0.8419296250012849), (2, 1.2418265360010992)]",0.5996783950366928
group,21,84,post,-3,32,anticlockwise,anticlockwise,correct,0.4115002809994621,ca,590,-10,500,group,1.569064431998413,gs,5.0,1.0814511739990849,6,"[(6, 0.0004919570001220563), (5, 0.9544716990003508), (5, 1.0820937400003459)]",0.5696993064461379
group,21,85,pre,-3,16,anticlockwise,anticlockwise,correct,0.37754017500083137,ca,940,10,500,solo,1.2989969499994913,sg,2.0,1.2333001389997662,2,"[(2, 0.0004916349989798618), (2, 1.2340930760001356)]",0.40718114455330207
group,21,86,post,-3,64,anticlockwise,anticlockwise,correct,0.8398680320005951,ca,770,10,500,group,0.9404620229997818,sg,3.0,0.7658875719989737,3,"[(3, 0.000495823000164819), (3, 0.7667736069997773)]",0.4616197171592511
group,21,87,post,-3,8,clockwise,anticlockwise,wrong,0.5196820849996584,ac,1040,-10,500,group,1.1136287629997241,sg,3.0,0.948202367999329,3,"[(3, 0.0005118280005262932), (3, 0.9488987249987986)]",0.4411181537079351
group,21,88,post,3,32,anticlockwise,clockwise,wrong,1.0325700899993535,ca,590,-10,500,group,1.6539094820000173,sg,5.0,1.7540839670000423,1,"[(1, 0.0005123250011820346), (2, 0.5549978480012214), (3, 0.666910343001291), (4, 1.0190575060005358), (5, 1.4190324320006766), (5, 1.75483449100102)]",0.40369113476671425
group,21,89,post,3,64,anticlockwise,clockwise,wrong,1.549910956999156,ca,500,10,500,group,1.1745564120010386,sg,4.0,0.7177801769994403,4,"[(4, 0.0005114080013299827), (4, 0.7187644569985423)]",0.42786841619632565
group,21,90,post,3,8,clockwise,clockwise,correct,1.910112007999487,ac,500,10,500,group,0.7682480749990646,sg,4.0,1.23993148900081,1,"[(1, 0.0005170349995751167), (2, 0.5530898239994713), (3, 0.6809580599983747), (4, 1.0808361659983348), (4, 1.2421374149998883)]",0.5483577057112934
group,21,91,post,3,32,clockwise,clockwise,correct,0.7684380999999121,ac,500,0,500,group,0.7287229359990306,sg,5.0,1.0739486629991006,4,"[(4, 0.0005109080011607148), (5, 0.7389026069995452), (5, 1.07468629899995)]",0.40276098234643554
group,21,92,post,-3,8,clockwise,anticlockwise,wrong,1.2891536930001166,ac,640,10,500,group,0.8450822719987627,sg,5.0,2.4017118160008977,3,"[(3, 0.00048101799984578975), (4, 0.4987818999998126), (5, 0.8349844500007748), (5, 2.4025431179998122)]",0.5931985115130202
group,21,93,pre,-3,16,clockwise,anticlockwise,wrong,3.1193391180004255,ac,770,10,500,group,2.495581093999135,gs,6.0,0.569122504999541,6,"[(6, 0.0005029000003560213), (6, 0.5699411599998712)]",0.5955636105532778
group,21,94,post,-3,64,clockwise,anticlockwise,wrong,1.2113894510002865,ac,1040,-10,500,solo,1.825611480999214,gs,3.0,1.4070595889988908,6,"[(6, 0.0004911790001642657), (5, 0.7040880530003051), (4, 0.991912723000496), (3, 1.1519540730005247), (3, 1.4079117479996057)]",0.4300317567476873
group,21,95,post,-3,32,anticlockwise,anticlockwise,correct,2.9116599400003906,ca,850,-10,500,group,1.0427133189987217,gs,4.0,0.7023031700009597,4,"[(4, 0.000514868999744067), (4, 0.7031835079997109)]",0.4262084190616188
group,21,96,post,-3,16,anticlockwise,anticlockwise,correct,0.7177506529988023,ac,850,-10,500,solo,1.0000473700001749,gs,4.0,1.029869678999603,4,"[(4, 0.0004783260010299273), (4, 1.0308061969990376)]",0.4014921772551374
group,21,97,post,3,8,anticlockwise,clockwise,wrong,0.7993339830009063,ca,1040,10,500,solo,0.791502402000333,gs,3.0,0.8298607109991281,4,"[(4, 0.0005004859995096922), (3, 0.5429274169982818), (3, 0.8306977259999258)]",0.5727178216300053
group,21,98,post,3,16,anticlockwise,clockwise,wrong,0.04707710199909343,ca,550,10,500,group,1.812528934000511,sg,4.0,1.2344925249999505,2,"[(2, 0.00048354499995184597), (3, 0.6435404539988667), (4, 0.8034505929990701), (4, 1.2352771980004036)]",0.5772974547808067
group,21,99,post,3,64,clockwise,clockwise,correct,0.805626380000831,ac,770,-10,500,group,1.421247491000031,gs,4.0,1.2589795010007947,1,"[(1, 0.0005165710008441238), (2, 0.5080361370000901), (3, 0.7318589210008213), (4, 0.9079105110013188), (4, 1.259714158000861)]",0.5353298043791707
group,21,100,post,3,32,clockwise,clockwise,correct,1.2016332210005203,ac,1150,0,500,group,1.5606746499997826,sg,4.0,1.5193129149993183,6,"[(6, 0.0005010150016460102), (5, 0.4642980649987294), (4, 1.040263265998874), (4, 1.5200974009985657)]",0.42411424985233137
group,21,101,post,-3,64,clockwise,anticlockwise,wrong,0.747321267001098,ca,1400,0,500,solo,1.2677124660003756,gs,3.0,0.7599534119999589,3,"[(3, 0.0004926879992126487), (3, 0.7608546400006162)]",0.4616862109700961
group,21,102,post,-3,32,anticlockwise,anticlockwise,correct,0.7475689460006834,ca,640,-10,500,group,0.9654375579993939,gs,5.0,0.6286991119995946,5,"[(5, 0.0005314520003594225), (5, 0.629621041000064)]",0.5764288638239349
group,21,103,post,3,64,clockwise,clockwise,correct,4.1316013380001095,ac,1150,0,500,solo,0.8210463289997278,sg,3.0,0.9546623969999928,5,"[(5, 0.0004746489994431613), (4, 0.45963239900083863), (3, 0.6995057069998438), (3, 0.9553963840007782)]",0.4597621610638826
group,21,104,post,-3,8,anticlockwise,anticlockwise,correct,0.5561685640004725,ac,850,-10,500,group,1.0050874759999715,gs,4.0,0.7471008740012621,3,"[(3, 0.000491380000312347), (4, 0.4440744280000217), (4, 0.7479810629993153)]",0.48487926763656186
group,21,105,post,3,16,clockwise,clockwise,correct,0.5654827689995727,ac,640,0,500,group,0.8700017949995527,gs,3.0,1.257429219000187,6,"[(6, 0.0004798580011993181), (5, 0.5225093389999529), (4, 0.6983168729984754), (3, 1.0345159549997334), (3, 1.2584089470001345)]",0.44542957104089026
group,21,106,pre,-3,32,clockwise,anticlockwise,wrong,1.5033649959987088,ac,1040,-10,500,group,1.2901238330014166,sg,4.0,1.4494438439996884,2,"[(2, 0.0005127620006533107), (1, 0.4744938269996055), (2, 0.8584958069986897), (3, 0.9863221239993436), (4, 1.3063754380000319), (4, 1.4503570489996491)]",0.47233131747997664
group,21,107,post,3,8,anticlockwise,clockwise,wrong,1.3165983449998748,ca,700,10,500,group,1.974768228999892,gs,4.0,0.8619397999991634,2,"[(2, 0.0004852090005442733), (3, 0.4470418399996561), (4, 0.574906464000378), (4, 0.8628871599994454)]",0.5356944882814767
group,21,108,post,-3,16,clockwise,anticlockwise,wrong,1.0099388279995765,ca,640,-10,500,group,1.200511777000429,sg,5.0,0.7903317380005319,5,"[(5, 0.0004777769991051173), (5, 0.7912874369994825)]",0.5020465235818383
