task,id,trial,order,ori_mean,ori_var,judge,answer,result,judge_rt,line_pos,payoff_solo,payoff_jitter,payoff_group,choice,choice_rt,option_pos,rating,rating_rt,rating_init,rating_history,iti
group,19,1,post,-3,64,clockwise,anticlockwise,wrong,1.344818382000085,ca,940,-10,500,solo,0.9134951900005035,sg,4.0,2.051124367000739,3,"[(3, 0.0003823039996859734), (4, 1.7321045460003006), (4, 2.051797558000544)]",0.5506228442041456
group,19,2,post,-3,16,anticlockwise,anticlockwise,correct,0.8252122029998645,ca,700,-10,500,solo,0.7350880370004234,sg,3.0,2.2959495160002916,4,"[(4, 0.0005476829992403509), (3, 2.0410906850001993), (3, 2.296843469000123)]",0.46840054868842684
group,19,3,post,3,32,clockwise,clockwise,correct,1.267234408999684,ac,700,-10,500,group,1.0315978859998722,sg,3.0,1.7477623209997546,4,"[(4, 0.00048022600003605476), (3, 1.476580358999854), (3, 1.7486010510001506)]",0.4945367505617593
group,19,4,post,3,16,anticlockwise,clockwise,wrong,1.3807267059992228,ca,700,-10,500,solo,0.932782417999988,gs,4.0,2.5647898469997017,6,"[(6, 0.0004786449999301112), (5, 1.926057803000731), (4, 2.1181587870005387), (4, 2.565984564000246)]",0.4988343013859371
group,19,5,post,-3,8,clockwise,anticlockwise,wrong,0.7744119720000526,ca,850,-10,500,solo,0.7825976370004355,gs,4.0,1.9413359200007108,1,"[(1, 0.00047914799961290555), (2, 0.8543867230000615), (3, 1.014372244999322), (4, 1.5904240390000268), (4, 1.9421039689996178)]",0.48543074697578487
group,19,6,pre,3,16,clockwise,clockwise,correct,0.8853009779995773,ca,770,-10,500,solo,5.4316984810002396,gs,5.0,2.8236441740000373,1,"[(1, 0.0004910529996777768), (2, 1.880754148000051), (3, 2.0406415319994267), (4, 2.1845075109995378), (5, 2.584602633999566), (5, 2.8245612589998927)]",0.5296356088445162
group,19,7,post,-3,32,anticlockwise,anticlockwise,correct,0.7952200270001413,ac,1270,10,500,solo,0.785320990999935,sg,4.0,1.7037575099993774,5,"[(5, 0.00047908299984555924), (4, 1.3527773360001447), (4, 1.7046338399995875)]",0.5615324964233148
group,19,8,post,3,8,clockwise,clockwise,correct,1.6408952780002437,ac,550,-10,500,solo,1.229617538999264,sg,6.0,1.0748664069997176,6,"[(6, 0.000491787000100885), (6, 1.0756352560001687)]",0.5606595802308134
group,19,9,post,3,64,anticlockwise,clockwise,wrong,1.2144728820003365,ac,940,-10,500,group,0.8045430120000674,sg,2.0,1.9461639670007571,3,"[(3, 0.0004979569994247868), (2, 1.6109103949993369), (2, 1.9469231829998535)]",0.49214049498184975
group,19,10,post,3,32,clockwise,clockwise,correct,0.9492159600004015,ca,940,10,500,group,1.3013624870000058,sg,3.0,1.4160377379994316,6,"[(6, 0.0005430290002550464), (5, 0.4728026470002078), (4, 0.6488592210007482), (3, 0.8728896680004254), (3, 1.4168754890006312)]",0.4668035886322125
group,19,11,pre,3,16,clockwise,clockwise,correct,0.7829958900001657,ca,1150,-10,500,solo,1.7435268889994404,sg,4.0,4.133433449000222,5,"[(5, 0.0004949229996782378), (4, 3.302618332999373), (4, 4.134335633999399)]",0.5400308400127499
group,19,12,post,3,16,clockwise,clockwise,correct,0.9359667910002827,ca,850,-10,500,solo,0.9541158439997162,gs,5.0,2.233320383999853,2,"[(2, 0.0005010889999539359), (3, 1.0341563669999232), (4, 1.194218543999341), (5, 1.610263575999852), (5, 2.234295423999356)]",0.479712759585908
group,19,13,post,3,8,clockwise,clockwise,correct,0.8836273790002451,ac,1400,10,500,solo,0.7919652260006842,sg,6.0,1.6140872469995884,1,"[(1, 0.0004901680003968067), (2, 0.6391485459998876), (3, 0.7829569449995688), (4, 0.9910268449993964), (5, 1.1189027099999294), (6, 1.2309343359993363), (6, 1.6147522549999849)]",0.5717489590780322
group,19,14,post,-3,8,anticlockwise,anticlockwise,correct,0.723419343000387,ac,700,0,500,solo,0.8449809329995333,sg,5.0,1.3132888029995229,3,"[(3, 0.00048296100067091174), (4, 0.91427581500011), (5, 1.042165591000412), (5, 1.3141694370006007)]",0.5335640458776795
group,19,15,post,-3,64,clockwise,anticlockwise,wrong,0.7746828099998311,ca,700,0,500,group,0.9103304919999573,sg,4.0,1.2968440519998694,3,"[(3, 0.0005105340005684411), (4, 1.0420006429994828), (4, 1.2976978179995058)]",0.4155514851372454
group,19,16,post,-3,32,clockwise,anticlockwise,wrong,0.8650287130003562,ac,1040,-10,500,solo,0.85389297599977,sg,3.0,1.1293350759997338,2,"[(2, 0.0004945569999108557), (3, 0.7942633719994774), (3, 1.1302760439994017)]",0.5443718191406772
group,19,17,post,-3,16,clockwise,anticlockwise,wrong,0.7061069499995938,ca,1150,0,500,solo,0.6363963430003423,gs,3.0,1.176773588999822,4,"[(4, 0.0005164740005056956), (3, 0.9057505589998982), (3, 1.1774219440003435)]",0.5271079551050216
group,19,18,post,3,64,clockwise,clockwise,correct,0.7980145040000934,ac,640,-10,500,group,1.2371372410007098,gs,2.0,4.329719806999492,2,"[(2, 0.0005144710003150976), (3, 2.0747181369997634), (4, 2.250670788000207), (3, 3.4665281019997565), (2, 4.0425154929998826), (2, 4.3304820809999)]",0.5705263142701955
group,19,19,post,3,8,clockwise,clockwise,correct,0.8233407979996628,ca,1270,0,500,solo,0.9260135699996681,gs,5.0,1.503118695000012,2,"[(2, 0.0005050590007158462), (3, 0.7199753780005267), (4, 0.8799552620002942), (5, 1.2000872420003361), (5, 1.503884845000357)]",0.4036925347090478
group,19,20,pre,-3,64,clockwise,anticlockwise,wrong,1.5377556229996117,ca,940,10,500,solo,1.3463816770008634,sg,2.0,2.0103004459997464,4,"[(4, 0.0004974780003976775), (3, 1.4831350229997042), (2, 1.691028338000251), (2, 2.0110461449994546)]",0.5494810256062965
group,19,21,post,3,64,clockwise,clockwise,correct,1.0772241140002734,ac,1150,-10,500,solo,0.8164271129999179,gs,4.0,4.021706923000238,4,"[(4, 0.000484086999676947), (5, 2.0068004049999217), (4, 2.502714257999287), (5, 2.8708422079998854), (4, 3.046686677999787), (5, 3.20672955200007), (4, 3.366628615999616), (5, 3.478719643999284), (4, 3.6227418629996464), (4, 4.022498844999973)]",0.4002400587000204
group,19,22,post,-3,64,anticlockwise,anticlockwise,correct,1.112795451999773,ca,590,10,500,solo,1.4267976649998673,sg,2.0,2.1275909639998645,5,"[(5, 0.0004963999999745283), (4, 1.0087172560006366), (3, 1.2166227739999158), (2, 1.6487000130000524), (2, 2.1284103160005543)]",0.589022072400445
group,19,23,post,-3,16,anticlockwise,anticlockwise,correct,0.8836350699994,ca,770,0,500,solo,0.8718069010001273,sg,4.0,1.4187030789998971,3,"[(3, 0.000506401000166079), (4, 1.1156671939997977), (4, 1.419648658999904)]",0.43778131400638454
group,19,24,post,3,32,clockwise,clockwise,correct,1.2101095480002186,ca,1270,10,500,solo,0.7367616849996921,gs,4.0,1.4817806080000082,3,"[(3, 0.000513563999447797), (4, 0.6505793709993668), (5, 0.8107733349997943), (4, 1.178602544999194), (4, 1.4827044779995049)]",0.46376056219843526
group,19,25,post,-3,8,anticlockwise,anticlockwise,correct,0.9615112859992223,ca,1400,-10,500,solo,0.6582904810002219,gs,3.0,1.7420469680000679,5,"[(5, 0.0004792600002474501), (4, 1.2629636909996407), (3, 1.4709126580000884), (3, 1.74288857800002)]",0.587322797075212
group,19,26,post,3,16,clockwise,clockwise,correct,0.7683357369996884,ac,1040,-10,500,solo,0.6471834899994064,gs,3.0,1.0448653559997183,5,"[(5, 0.0004933019999953103), (4, 0.6295569900003102), (3, 0.8055845050002972), (3, 1.0457157479995658)]",0.46584015148650026
group,19,27,post,-3,32,anticlockwise,anticlockwise,correct,1.152994101999866,ca,850,0,500,group,1.0497443699996438,sg,1.0,1.4619899009994697,3,"[(3, 0.0004985719997421256), (2, 0.6789380650006933), (1, 0.9028220140007761), (1, 1.4629609460007487)]",0.5009453872003354
group,19,28,post,3,8,clockwise,clockwise,correct,0.7037155520001761,ac,770,0,500,solo,0.9707889270002852,sg,6.0,1.145541057000628,2,"[(2, 0.0005048000002716435), (3, 0.23443378400043002), (4, 0.39444163700045465), (5, 0.6184939439999653), (6, 0.8584922580002967), (6, 1.1462088050002421)]",0.5558775720613186
group,19,29,post,3,64,clockwise,clockwise,correct,1.3019767630003116,ca,500,-10,500,group,3.4328479550003976,gs,3.0,2.8539530600000944,1,"[(1, 0.000493151999762631), (2, 1.2547807680002734), (3, 1.4307413559999986), (4, 1.878850818000501), (3, 2.326734244999898), (3, 2.8546155570002156)]",0.4150073918489175
group,19,30,post,-3,64,anticlockwise,anticlockwise,correct,0.8446876620000694,ac,640,-10,500,group,1.5685094780001236,gs,2.0,1.1923606649997964,4,"[(4, 0.0005157430005056085), (3, 0.6010783489991809), (2, 0.9211205729998255), (2, 1.1932246869992014)]",0.45756467074868784
group,19,31,post,-3,16,anticlockwise,anticlockwise,correct,0.8631137890006357,ac,550,10,500,solo,1.4428173030000835,gs,4.0,1.6157115530004376,6,"[(6, 0.0005067169995527365), (5, 0.9445395880002252), (4, 1.1046036830002777), (4, 1.6166627860002336)]",0.5059313367299682
group,19,32,post,-3,32,clockwise,anticlockwise,wrong,1.0149923099997977,ca,1400,0,500,solo,1.109756556999855,sg,3.0,1.7912016540003606,6,"[(6, 0.00048560100003669504), (5, 0.49622025200005737), (4, 1.008140801999616), (3, 1.456125411999892), (3, 1.7920909790000223)]",0.444230054658168
group,19,33,post,3,32,clockwise,clockwise,correct,0.6998710879997816,ac,640,10,500,solo,1.350947960000667,gs,2.0,1.175785856999937,4,"[(4, 0.0004915869994874811), (3, 0.7286728420003783), (2, 0.9526193740002782), (2, 1.1765555970005153)]",0.5299211655653951
group,19,34,post,3,16,anticlockwise,clockwise,wrong,1.1473318469998048,ca,500,0,500,group,1.621060008999848,sg,3.0,2.6983240830004434,3,"[(3, 0.0004897150001852424), (4, 2.027431098999841), (3, 2.3633540459995857), (3, 2.6992735269996047)]",0.5778172974418769
group,19,35,pre,-3,16,anticlockwise,anticlockwise,correct,1.0362784850003663,ac,500,-10,500,solo,7.357822864999434,sg,4.0,2.425610609000614,2,"[(2, 0.0005136609997862251), (3, 1.7867385400004423), (4, 2.074568482000359), (4, 2.426431484999739)]",0.5637475749184472
group,19,36,post,-3,8,anticlockwise,anticlockwise,correct,1.8099306580006669,ca,1040,0,500,solo,1.1209703360000276,sg,5.0,1.3859007400005794,4,"[(4, 0.0004761829995914013), (5, 1.0511107809998066), (5, 1.3871181730000899)]",0.4101418247984495
group,19,37,post,-3,32,anticlockwise,anticlockwise,correct,1.0460425510000277,ca,770,10,500,solo,0.8026826229997823,sg,2.0,2.8726065130003917,5,"[(5, 0.0004924869999740622), (4, 0.7621238699994137), (3, 0.9380227249994277), (2, 1.3859531399994012), (1, 1.9458785589995387), (2, 2.473788592999881), (2, 2.8738815239994437)]",0.5731432463055667
group,19,38,post,-3,64,anticlockwise,anticlockwise,correct,1.1997155230001226,ac,1040,10,500,solo,0.9818329149993588,sg,3.0,1.668905824999456,3,"[(3, 0.0004893109999102307), (2, 0.7897170139995069), (3, 1.0939213139999993), (3, 1.6698625769995488)]",0.42884633654035653
group,19,39,post,-3,16,anticlockwise,anticlockwise,correct,0.7611577689995102,ca,590,0,500,solo,0.6895782760002476,sg,5.0,3.500472486000035,2,"[(2, 0.0004899120003756252), (3, 1.021414017999632), (4, 1.3737954169992008), (5, 1.8373956619998353), (5, 3.50141309799983)]",0.49540215690081546
group,19,40,post,3,64,anticlockwise,clockwise,wrong,1.2559345780000513,ca,1270,0,500,solo,1.3898532439998235,gs,3.0,1.1648927489995913,4,"[(4, 0.0005107890001454507), (3, 0.6856255820002843), (3, 1.1656576169998516)]",0.46401042897101386
group,19,41,post,-3,8,anticlockwise,anticlockwise,correct,2.2400731910001923,ac,550,-10,500,solo,1.1020221700000548,sg,2.0,2.1682267109999884,3,"[(3, 0.0004835299996557296), (4, 0.8733016209998823), (3, 1.4331337799994799), (2, 1.9450079779999214), (2, 2.169084514000133)]",0.5974767314908996
group,19,42,post,3,8,clockwise,clockwise,correct,0.7484226570004466,ac,850,0,500,solo,0.8529920840001068,gs,6.0,0.7611364399999729,5,"[(5, 0.00048373500067100395), (6, 0.426216093000221), (6, 0.7620078909994845)]",0.41344786924527044
group,19,43,post,3,32,clockwise,clockwise,correct,0.6873652409994975,ac,500,10,500,solo,0.8588383829992381,sg,4.0,1.0061689650001426,5,"[(5, 0.0004820459998882143), (4, 0.7351670020007077), (4, 1.0069211790005284)]",0.5273560210888231
group,19,44,post,3,16,clockwise,clockwise,correct,0.8100481370001944,ca,1270,0,500,solo,0.7524396879998676,sg,5.0,0.9363408509998408,3,"[(3, 0.0004893320001428947), (4, 0.5053497119997701), (5, 0.6653051060002326), (5, 0.937121414000103)]",0.5826509983562327
group,19,45,pre,-3,16,anticlockwise,anticlockwise,correct,0.7394620599998234,ac,1400,10,500,solo,2.065809053000521,sg,3.0,2.172603592000087,6,"[(6, 0.0004838739996557706), (5, 1.0695939549996183), (4, 1.5014386729999387), (3, 1.9335226929997589), (3, 2.1734488989995953)]",0.571694741554959
group,19,46,post,3,8,clockwise,clockwise,correct,1.0534307530006117,ac,1150,-10,500,solo,0.649916057000155,gs,6.0,0.9815160469997863,6,"[(6, 0.00048066499948618), (6, 0.9825660090000383)]",0.5017513218901739
group,19,47,post,3,16,clockwise,clockwise,correct,0.852099802000339,ca,590,0,500,solo,1.1609811509997598,sg,6.0,1.248742108999977,6,"[(6, 0.0004835209992961609), (6, 1.2496169639998698)]",0.5362606661491944
group,19,48,post,-3,32,anticlockwise,anticlockwise,correct,0.6460818909999944,ac,590,-10,500,solo,0.8355830150003385,gs,3.0,1.480260657999679,2,"[(2, 0.0004761909995067981), (3, 0.8094122269994841), (4, 0.9530919329999961), (3, 1.2090661800002636), (3, 1.4810665409995636)]",0.4564859675649466
group,19,49,post,-3,8,clockwise,anticlockwise,wrong,17.86110562199974,ca,1150,10,500,solo,0.7228149739994478,sg,5.0,1.1164755259997037,6,"[(6, 0.0004969259998688358), (5, 0.6535218429999077), (5, 1.1174703750002664)]",0.47180318349680084
group,19,50,post,3,32,clockwise,clockwise,correct,0.6630775109997558,ca,550,10,500,solo,0.9625115979997645,sg,5.0,2.2103087039995444,6,"[(6, 0.0004855719998886343), (5, 1.3313737139997102), (4, 1.5713629989995752), (5, 1.9072509709994847), (5, 2.2112224069996955)]",0.4975768060419936
group,19,51,post,-3,64,anticlockwise,anticlockwise,correct,0.8182853039998008,ca,550,10,500,solo,1.0481578760000048,gs,2.0,1.3014455639995504,3,"[(3, 0.00048215700007858686), (2, 1.01453698000023), (2, 1.3022738710005797)]",0.44197589827546124
group,19,52,post,3,64,clockwise,clockwise,correct,1.0184812979996423,ac,1400,-10,500,group,1.336030092999863,gs,4.0,2.185696970999743,4,"[(4, 0.0005620669999188976), (4, 2.186666120999689)]",0.4276881810146863
group,19,53,pre,3,8,clockwise,clockwise,correct,0.686923334000312,ac,640,0,500,solo,1.540952925000056,gs,6.0,1.561424423999597,2,"[(2, 0.0004781009993166663), (3, 0.7945098509999298), (4, 0.9702350930001558), (5, 1.0984196850004082), (6, 1.178382605000479), (6, 1.2902552000005016), (6, 1.5623062590002519)]",0.47953497926061195
group,19,54,post,-3,16,anticlockwise,anticlockwise,correct,0.720594577999691,ac,500,0,500,solo,2.090614256999288,gs,5.0,1.5175834660003602,1,"[(1, 0.0004769410006701946), (2, 0.638698089999707), (3, 0.7824254420002035), (4, 0.878454872000475), (5, 1.230539883000347), (5, 1.5184194690000368)]",0.5264900105922062
group,19,55,post,3,8,clockwise,clockwise,correct,0.9875674590002745,ca,1040,0,500,solo,0.6825334909999583,sg,6.0,1.1573745199993937,4,"[(4, 0.0004926949995933683), (5, 0.7423998760004906), (6, 0.8702185060001284), (6, 1.1581360720001612)]",0.5382812520876593
group,19,56,post,3,16,clockwise,clockwise,correct,0.7362528439998641,ac,770,-10,500,solo,0.6968286239998633,gs,5.0,0.8194771430007677,6,"[(6, 0.0004856510004174197), (5, 0.5803438719995029), (5, 0.8202153820002422)]",0.44082651180382615
group,19,57,post,3,32,clockwise,clockwise,correct,0.9076093220000985,ca,850,0,500,solo,0.9909492249998948,gs,3.0,1.3418436369993287,4,"[(4, 0.0005095129999972414), (3, 1.1665634379996845), (3, 1.3425422629998138)]",0.4322042669455165
group,19,58,post,-3,16,anticlockwise,anticlockwise,correct,1.0708173319999332,ac,1040,10,500,solo,0.7940642220000882,gs,3.0,1.6805982079995374,1,"[(1, 0.0004865459995926358), (2, 0.6095872109999618), (3, 0.7693740149998121), (3, 1.6815035130002798)]",0.5020471431953747
group,19,59,post,-3,8,anticlockwise,anticlockwise,correct,0.9172044700007973,ac,770,-10,500,solo,0.7434025820002717,gs,4.0,1.582813908999924,4,"[(4, 0.0005045200005042716), (5, 0.4799681669992424), (4, 0.9438326629997391), (4, 1.5837162029993124)]",0.47939134841968867
group,19,60,post,-3,32,anticlockwise,anticlockwise,correct,0.7896593579998807,ac,500,10,500,solo,1.1811893750000309,gs,4.0,2.2112801089997447,3,"[(3, 0.00048049500037450343), (4, 1.9560353289998602), (4, 2.211980054000378)]",0.532132339287709
group,19,61,pre,-3,64,anticlockwise,anticlockwise,correct,1.009207544999299,ca,850,0,500,solo,1.4809999250001056,gs,3.0,6.846521529999336,4,"[(4, 0.00047323599937953986), (3, 6.335539398000037), (3, 6.847351549999985)]",0.5971377597151886
group,19,62,post,-3,64,anticlockwise,anticlockwise,correct,0.9181368009994912,ac,850,0,500,solo,0.7927300720002677,sg,4.0,1.0392542150002555,3,"[(3, 0.0004891099997621495), (4, 0.8002641130005941), (4, 1.0402023900005588)]",0.43693853894136186
group,19,63,post,3,64,anticlockwise,clockwise,wrong,0.9418416340004114,ac,850,-10,500,solo,0.7185874080005306,sg,3.0,2.3595315630000187,3,"[(3, 0.0005202310003369348), (3, 2.3604724189999615)]",0.46767353024360414
group,19,64,post,3,64,anticlockwise,clockwise,wrong,0.9138137249992724,ac,590,0,500,group,1.8765816879995327,gs,3.0,1.8871203849994345,4,"[(4, 0.0004898919996776385), (3, 1.5842219590003879), (3, 1.8890934560004098)]",0.44844238436935946
group,19,65,post,3,8,clockwise,clockwise,correct,0.7184117139995578,ac,640,-10,500,solo,0.6802387050001926,gs,6.0,0.9149930630001109,5,"[(5, 0.0004884360005235067), (6, 0.6600432220002403), (6, 0.9159479429999919)]",0.4216325681030578
group,19,66,post,3,32,anticlockwise,clockwise,wrong,0.7066187860000355,ac,1040,-10,500,solo,1.0379069709997566,gs,3.0,0.9380026870003348,4,"[(4, 0.0005130330000611139), (3, 0.5710870900002192), (3, 0.938908002000062)]",0.5619258480050799
group,19,67,post,3,16,clockwise,clockwise,correct,0.654472767999323,ac,1400,10,500,solo,0.6993175589996099,gs,5.0,0.9657055729994681,3,"[(3, 0.00047418999929504935), (4, 0.5027482620007504), (5, 0.6626252840005691), (5, 0.9663763060007113)]",0.40798790795867235
group,19,68,post,-3,16,anticlockwise,anticlockwise,correct,0.9378676980004457,ca,640,10,500,solo,0.7949166960006551,sg,3.0,0.7534462909998183,4,"[(4, 0.00048273199990944704), (3, 0.4667895779994069), (3, 0.7544612559995585)]",0.4003256884007304
group,19,69,post,-3,32,clockwise,anticlockwise,wrong,0.7820982960001857,ac,1150,0,500,solo,0.6298013440000432,sg,2.0,0.8825986570000168,3,"[(3, 0.0004975820002073306), (2, 0.5957658950001132), (2, 0.8834044300001551)]",0.40143174467673903
group,19,70,post,-3,64,anticlockwise,anticlockwise,correct,1.105735096999524,ac,1270,10,500,solo,0.6201995230003376,sg,3.0,0.9221777570000995,2,"[(2, 0.0005307889996402082), (3, 0.6671270039996671), (3, 0.9227648030000637)]",0.5966424121631899
group,19,71,post,-3,8,clockwise,anticlockwise,wrong,0.6534342939994531,ac,590,10,500,solo,0.8747704859997611,gs,5.0,0.9733595859997877,5,"[(5, 0.0005157489995326614), (6, 0.30221620300017094), (5, 0.5901289189996533), (5, 0.9742768659998546)]",0.4584806291746699
group,19,72,pre,3,64,clockwise,clockwise,correct,0.7519832199996017,ac,590,0,500,solo,2.3431974470004207,gs,3.0,1.6238812040000994,5,"[(5, 0.0004825060004804982), (4, 1.1607686919996922), (3, 1.3527839449998282), (3, 1.6248635559995819)]",0.5210096489858155
group,19,73,post,-3,16,clockwise,anticlockwise,wrong,1.1350312840004335,ca,940,10,500,solo,0.9364357570002539,gs,3.0,2.1043464459999086,5,"[(5, 0.0005078800004412187), (4, 0.7610122109999793), (3, 0.9372678310000992), (3, 2.10539599599997)]",0.4826754739799968
group,19,74,post,-3,8,anticlockwise,anticlockwise,correct,0.7349144330000854,ca,500,-10,500,group,2.151355451999734,gs,6.0,0.8567478439999832,4,"[(4, 0.0004792600002474501), (5, 0.47386288500001683), (6, 0.6015296109999326), (6, 0.8577240259992323)]",0.4268262706456298
group,19,75,post,-3,32,clockwise,anticlockwise,wrong,0.8313443720007854,ac,940,0,500,solo,1.0768577130002086,sg,4.0,1.7280588449993957,6,"[(6, 0.0004858529991906835), (5, 0.6090806880001765), (4, 1.4570748699998148), (4, 1.7289438460002202)]",0.412227206862991
group,19,76,post,3,16,clockwise,clockwise,correct,0.7528855559994554,ac,640,-10,500,solo,0.8577002449992506,sg,5.0,1.598142388999804,3,"[(3, 0.00047510799959127326), (4, 0.8791552980001143), (5, 1.2631377429997883), (5, 1.5990705240001262)]",0.5091239256413475
group,19,77,post,3,32,clockwise,clockwise,correct,1.7013202170001023,ca,1400,0,500,solo,0.8244874470001378,gs,3.0,1.1658791150002799,1,"[(1, 0.00048125900048034964), (2, 0.7029560239998318), (3, 0.8627215639999122), (3, 1.1667731369998364)]",0.48051923867824714
group,19,78,post,3,8,clockwise,clockwise,correct,0.9849630380003873,ac,500,10,500,solo,1.7044823520000136,gs,5.0,1.0828367960002652,2,"[(2, 0.000594357000409218), (3, 0.49191178399996716), (4, 0.6357701059996543), (5, 0.7796144909998475), (5, 1.0837946960000409)]",0.4210631110202532
group,19,79,post,-3,64,anticlockwise,anticlockwise,correct,0.8872050749996561,ac,1400,0,500,group,0.9228732769997805,sg,4.0,2.2676566990003266,3,"[(3, 0.0005515559996638331), (4, 1.9486282240004584), (4, 2.2686078619999535)]",0.48552978792002266
group,19,80,pre,3,8,clockwise,clockwise,correct,0.9196027280004273,ac,700,10,500,solo,1.602113048999854,sg,4.0,1.3694209649993354,2,"[(2, 0.0005247349999990547), (3, 0.7784943169999679), (4, 0.9702670149999904), (4, 1.3702550429998155)]",0.5291982126282065
group,19,81,post,3,64,clockwise,clockwise,correct,0.9031328069995652,ca,700,0,500,solo,0.825562321999314,sg,3.0,1.262342331000582,6,"[(6, 0.0004843299993808614), (5, 0.4793570470001214), (4, 0.6712015809998775), (3, 1.007252432000314), (3, 1.263298427999871)]",0.5594298577649625
group,19,82,post,3,64,clockwise,clockwise,correct,0.8184197320006206,ca,770,0,500,solo,0.6006134569997812,sg,3.0,1.5744778730004327,1,"[(1, 0.0004967390004821937), (2, 0.8714086279996991), (3, 1.015356937999968), (3, 1.5753444279998803)]",0.49014021403958496
group,19,83,pre,-3,16,clockwise,anticlockwise,wrong,0.8461828339995918,ca,1040,10,500,solo,0.9231350720001501,sg,5.0,2.3065009140000257,4,"[(4, 0.000470246000077168), (5, 1.9554180499999347), (5, 2.3074569489999703)]",0.4709728537110997
group,19,84,post,-3,64,anticlockwise,anticlockwise,correct,0.6552096470004471,ac,1150,0,500,solo,1.116290721999576,gs,2.0,2.2935406990000047,2,"[(2, 0.00048208400039584376), (2, 2.2944913080000333)]",0.4347420573455805
group,19,85,post,3,8,clockwise,clockwise,correct,0.641584592000072,ac,940,0,500,solo,0.7982543190000797,sg,5.0,1.2047157899996819,3,"[(3, 0.0004757389997394057), (4, 0.7897891180000443), (5, 0.949702361999698), (5, 1.2056880209993324)]",0.4656272464029011
group,19,86,post,3,16,clockwise,clockwise,correct,0.8308309240001108,ca,1150,10,500,solo,0.6118131310004173,sg,5.0,2.448995540999931,5,"[(5, 0.00048296100067091174), (5, 2.4498207759997968)]",0.4236554310342585
group,19,87,post,3,32,clockwise,clockwise,correct,0.9319104329997572,ac,1150,0,500,solo,0.6611258000002636,gs,4.0,0.9450258209999447,2,"[(2, 0.0004782510004588403), (3, 0.5621612499999173), (4, 0.7220233030002419), (4, 0.9459094889998596)]",0.5395902371553979
group,19,88,post,-3,16,anticlockwise,anticlockwise,correct,0.7872664179994899,ca,850,-10,500,group,1.226939281000341,sg,3.0,1.8875263270001597,3,"[(3, 0.0004843240003538085), (3, 1.8883703940000487)]",0.46186188825907526
group,19,89,post,-3,32,anticlockwise,anticlockwise,correct,0.728999525999825,ca,550,-10,500,solo,1.4586892790002821,gs,3.0,1.6148546160002297,3,"[(3, 0.00048126900037459563), (3, 1.6158890649994646)]",0.5460391430582651
group,19,90,post,-3,8,anticlockwise,anticlockwise,correct,1.443192858000657,ca,1270,10,500,solo,0.9282852779997484,sg,4.0,0.9292795299998033,4,"[(4, 0.00048402500033262186), (4, 0.9302955490002205)]",0.5119147543795821
group,19,91,post,3,32,clockwise,clockwise,correct,1.1871819349998987,ac,770,-10,500,group,0.8898752179993608,gs,3.0,1.5167314870004702,4,"[(4, 0.0004780869994647219), (3, 1.0378138339992802), (3, 1.5176118389999829)]",0.4957771728234637
group,19,92,post,-3,16,anticlockwise,anticlockwise,correct,1.2085183490007694,ca,1400,0,500,solo,0.8622730939996472,gs,3.0,1.4108414439997432,6,"[(6, 0.00046924999969633063), (5, 0.5638535749994844), (4, 0.97970305599938), (3, 1.1557941629998822), (3, 1.4115873509999801)]",0.4711043653802167
group,19,93,pre,-3,8,anticlockwise,anticlockwise,correct,1.38771238299978,ac,1270,-10,500,solo,1.290083522999339,gs,4.0,3.8017998679997618,3,"[(3, 0.0005979349998597172), (4, 3.0828705170006288), (5, 3.274709663000067), (4, 3.5467161880005733), (4, 3.8026882430003752)]",0.553989333619294
group,19,94,post,-3,8,anticlockwise,anticlockwise,correct,0.9544309689999864,ca,640,10,500,solo,1.002921408000475,sg,5.0,2.0406435940003576,5,"[(5, 0.0004775300003529992), (4, 1.4176329570000235), (5, 1.7055765830000382), (5, 2.041455259999566)]",0.48018641203107765
group,19,95,post,-3,32,clockwise,anticlockwise,wrong,0.8157041390004451,ca,700,0,500,solo,0.8852135689994611,sg,3.0,3.8645720860004076,2,"[(2, 0.0004816800001208321), (3, 3.257620976999533), (4, 3.417398079999657), (3, 3.6255904409999857), (3, 3.8653751339998053)]",0.44874715732180304
group,19,96,post,3,8,clockwise,clockwise,correct,0.9352624869998181,ac,700,-10,500,solo,0.6979106540002249,sg,5.0,4.499617650999426,4,"[(4, 0.00047961600012058625), (5, 2.628675242999634), (4, 3.044544536999638), (5, 3.380594211999778), (4, 3.6205702130000645), (5, 4.1645470109997405), (5, 4.500465267999971)]",0.4317131135035553
group,19,97,post,-3,64,anticlockwise,anticlockwise,correct,1.0183479489996898,ca,770,0,500,solo,1.0958265099998243,gs,3.0,1.3627688110000236,5,"[(5, 0.00048726499971962767), (4, 0.5318481160002193), (3, 0.7557212940000682), (3, 1.363742210000055)]",0.41592336207139086
group,19,98,post,3,16,anticlockwise,clockwise,wrong,0.915349657000661,ca,940,10,500,group,0.7891397519997554,gs,3.0,1.5804943519997323,5,"[(5, 0.0004860150002059527), (4, 1.1495658459998594), (3, 1.3254063719996338), (3, 1.5814333560001614)]",0.4824302458159903
group,19,99,post,3,64,clockwise,clockwise,correct,1.0108091250003781,ca,550,0,500,group,0.5924768979994042,gs,3.0,2.0950671820000935,2,"[(2, 0.00048297700050170533), (3, 1.567947303999972), (3, 2.0957591389997106)]",0.5143460776460392
group,19,100,post,-3,8,anticlockwise,anticlockwise,correct,0.6715179980001267,ac,940,0,500,solo,0.8280288969999674,sg,4.0,2.065074555999672,6,"[(6, 0.0004894889998467988), (5, 1.0100758739999947), (4, 1.810096440000052), (4, 2.0659469820002414)]",0.5430009755943805
group,19,101,post,-3,32,anticlockwise,anticlockwise,correct,0.8364862600001288,ca,640,0,500,solo,0.7459918360000302,sg,3.0,3.043150959000741,1,"[(1, 0.0005116920001455583), (2, 1.0599757399995724), (3, 1.811880310999186), (3, 3.043942867999249)]",0.4915010292004029
group,19,102,post,3,64,clockwise,clockwise,correct,0.8794868090008094,ca,1040,-10,500,solo,0.6597727590005888,sg,3.0,1.070678283000234,1,"[(1, 0.0004960939995726221), (2, 0.5436601629999132), (3, 0.6877253510001538), (3, 1.071610365000197)]",0.4984316417965936
group,19,103,post,3,16,clockwise,clockwise,correct,0.6841315760002544,ac,550,-10,500,solo,1.0315260860006674,gs,4.0,0.9162968880000335,2,"[(2, 0.0004784929997185827), (3, 0.4853680959995472), (4, 0.6453110869997545), (4, 0.9172283979996791)]",0.45728359589558587
group,19,104,post,-3,64,anticlockwise,anticlockwise,correct,0.6641274109997539,ac,500,-10,500,group,0.964421661000415,sg,4.0,1.268622272000357,5,"[(5, 0.0004969969995727297), (4, 0.9338019839997287), (4, 1.2693457369996395)]",0.452836804846186
group,19,105,pre,3,32,clockwise,clockwise,correct,0.8792035729993586,ca,550,-10,500,solo,4.487447862999943,gs,4.0,1.3134158409993688,1,"[(1, 0.0004887029999736114), (2, 0.7062953459999335), (3, 0.8822096630001397), (4, 1.0261293109997496), (4, 1.3142200880001838)]",0.41035484993794585
group,19,106,post,3,32,clockwise,clockwise,correct,0.7833708670004853,ac,590,10,500,solo,0.7266491310001584,gs,3.0,1.008206380000047,1,"[(1, 0.00047405199984495994), (2, 0.6093111049995059), (3, 0.753152561999741), (3, 1.009235472999535)]",0.5930970205812188
group,19,107,post,-3,16,anticlockwise,anticlockwise,correct,0.5879370940001536,ac,1270,0,500,solo,1.5000386410001738,gs,3.0,2.709964667999884,1,"[(1, 0.0005088139996587415), (2, 1.4147806319997471), (3, 1.590661817000182), (4, 1.7667434229997525), (3, 2.1506252730005144), (3, 2.7106552289997126)]",0.5526886724334439
group,19,108,post,3,8,clockwise,clockwise,correct,0.7702261809999982,ac,590,0,500,solo,1.017930609999894,sg,6.0,1.7040976389998832,1,"[(1, 0.000525751000168384), (2, 0.6487749880006959), (3, 0.7929264450003757), (4, 1.0009671640000306), (5, 1.1449332990005132), (6, 1.224768619000315), (6, 1.7048027370001364)]",0.4396741040446436
