task,id,trial,order,ori_mean,ori_var,judge,answer,result,judge_rt,line_pos,payoff_solo,payoff_jitter,payoff_group,choice,choice_rt,option_pos,rating,rating_rt,rating_init,rating_history,iti
group,4,1,pre,3,32,anticlockwise,clockwise,wrong,0.6385837180005183,ca,700,0,500,group,2.4555404860002454,gs,4.0,1.3556289259995538,5,"[(5, 0.0003761550015042303), (4, 1.1488721309997345), (4, 1.3567988310005603)]",0.4399533637492846
group,4,2,post,3,8,clockwise,clockwise,correct,0.8282247480001388,ca,700,10,500,solo,0.7375342839986843,gs,5.0,1.641385058999731,3,"[(3, 0.00047823199929553084), (4, 0.506340502999592), (5, 0.714102694999383), (5, 1.642323205998764)]",0.5061572428379124
group,4,3,post,-3,32,anticlockwise,anticlockwise,correct,0.49939302599887014,ca,940,0,500,solo,1.061963428001036,sg,2.0,1.089378785000008,3,"[(3, 0.0004848570006288355), (2, 0.8824514019997878), (2, 1.0902112000003399)]",0.4022281298422213
group,4,4,post,3,64,anticlockwise,clockwise,wrong,1.002345642000364,ca,700,10,500,group,0.7603419479983131,sg,4.0,1.7921851759983838,4,"[(4, 0.0004844049999519484), (3, 0.7530860989991197), (4, 1.345114444000501), (4, 1.7930613009993976)]",0.5638560078998557
group,4,5,post,-3,16,anticlockwise,anticlockwise,correct,0.5948749170001975,ac,1040,10,500,solo,0.6096116369990341,gs,5.0,1.2144412429988733,2,"[(2, 0.0004766299989569234), (3, 0.5753914559991244), (4, 0.8153274929991312), (5, 0.9912451599993801), (5, 1.2153018809985952)]",0.4167942614633775
group,4,6,post,3,32,anticlockwise,clockwise,wrong,0.9315000269998563,ca,1400,10,500,solo,0.693019643000298,gs,1.0,1.055072872000892,2,"[(2, 0.0004774509998242138), (1, 0.6721005780000269), (1, 1.0559583449994534)]",0.5332077064109807
group,4,7,post,3,16,anticlockwise,clockwise,wrong,0.6019064060001256,ca,700,0,500,group,0.5995740569996997,gs,5.0,0.8860305560010602,4,"[(4, 0.0004974140010745032), (5, 0.6628259359986259), (5, 0.8866908629988757)]",0.5702796211894188
group,4,8,post,-3,8,anticlockwise,anticlockwise,correct,0.7315930270015087,ac,590,10,500,solo,1.0935669069986034,gs,6.0,1.407647308000378,2,"[(2, 0.00047594699935871176), (3, 0.768549209999037), (4, 0.9447754979992169), (5, 1.088428830000339), (6, 1.2325467059999937), (6, 1.4084530839991203)]",0.4392578972608664
group,4,9,post,-3,64,anticlockwise,anticlockwise,correct,0.8781752869999764,ac,1270,-10,500,solo,1.0738178009996773,sg,4.0,1.7095543189989257,6,"[(6, 0.000483030999021139), (5, 0.44650449300024775), (4, 0.6063126530007139), (4, 1.7102420880000864)]",0.5037668038244352
group,4,10,post,-3,64,anticlockwise,anticlockwise,correct,0.7698773249994701,ac,550,0,500,solo,2.3462785749998147,gs,3.0,2.0978849699986313,2,"[(2, 0.00047501500012003817), (3, 0.7389316889984912), (3, 2.09883950099902)]",0.4551225205775582
group,4,11,post,3,8,clockwise,clockwise,correct,0.7437168800006475,ac,770,10,500,group,1.0719732029992883,sg,5.0,1.9795316439995077,1,"[(1, 0.0005008949992770795), (2, 0.5245731079994584), (3, 0.7325261820005835), (4, 0.9083879169993452), (3, 1.3085386279999511), (4, 1.6284161509993282), (5, 1.804445821000627), (5, 1.9804142240009242)]",0.438533099389639
group,4,12,post,-3,32,anticlockwise,anticlockwise,correct,0.8043192550012463,ac,1040,-10,500,solo,0.7473057030001655,sg,2.0,1.0427694490008435,2,"[(2, 0.00048303000039595645), (2, 1.043644293999023)]",0.4756095092129913
group,4,13,post,3,16,clockwise,clockwise,correct,0.8318761779992201,ac,1400,-10,500,solo,0.46909613400021044,gs,3.0,1.1605121770007827,1,"[(1, 0.0004842140006076079), (2, 0.3932959279991337), (3, 0.5694276480007829), (4, 0.7291868880001857), (3, 0.9851303159994131), (3, 1.1613278559998435)]",0.5095761350165484
group,4,14,pre,3,32,anticlockwise,clockwise,wrong,0.5550758930003212,ac,1150,10,500,solo,2.554502644999957,gs,5.0,2.9059648149996065,2,"[(2, 0.0004746470003738068), (3, 1.6753840620003757), (4, 1.8671740040008444), (5, 2.155322092999995), (5, 2.9072079160014255)]",0.5216418166440336
group,4,15,post,-3,16,anticlockwise,anticlockwise,correct,0.6513112160009769,ca,1270,0,500,solo,0.6475248820006527,sg,5.0,1.044187208999574,6,"[(6, 0.00050234099944646), (5, 0.5331719450005039), (5, 1.0450068379996083)]",0.5535609775006542
group,4,16,post,3,32,anticlockwise,clockwise,wrong,0.5957222010001715,ca,700,10,500,group,1.2185224109998671,sg,3.0,1.0640667859988753,2,"[(2, 0.0004711740002676379), (3, 0.8410961329991551), (3, 1.0648162409997894)]",0.4287875174938924
group,4,17,post,3,64,anticlockwise,clockwise,wrong,0.7878416300009121,ac,1270,0,500,solo,0.8753696490002767,sg,3.0,3.118125904000408,5,"[(5, 0.00047288099995057564), (4, 1.3591613030002918), (3, 1.5512676970010943), (2, 2.1112619579998864), (3, 2.943335874000695), (3, 3.1192607459997816)]",0.4996209488251494
group,4,18,post,-3,8,anticlockwise,anticlockwise,correct,0.6305801950002206,ca,1150,10,500,solo,0.6283454519998486,sg,6.0,0.5458654920003028,5,"[(5, 0.00047378900126204826), (6, 0.3869520410007681), (6, 0.5467585469996266)]",0.5362965828624571
group,4,19,post,-3,64,anticlockwise,anticlockwise,correct,0.9448290109994559,ac,1400,0,500,solo,1.0259516570004052,sg,1.0,1.0231876719990396,3,"[(3, 0.0005165130005480023), (2, 0.6722927070004516), (1, 0.8161677600000985), (1, 1.0239729069999157)]",0.5275118715390033
group,4,20,post,3,64,anticlockwise,clockwise,wrong,0.733838840998942,ac,850,-10,500,group,0.9670002359998762,gs,4.0,1.3342329269999027,6,"[(6, 0.0004869660006079357), (5, 0.4551733999996941), (4, 0.7110582549994433), (4, 1.3351425019991439)]",0.48762777051753525
group,4,21,post,-3,8,anticlockwise,anticlockwise,correct,0.7738208390001091,ca,940,-10,500,solo,0.5261376800008293,gs,5.0,2.142654985000263,5,"[(5, 0.0004869479998887982), (4, 0.5915765650006506), (5, 1.1835800839999138), (6, 1.327491533000284), (5, 1.7596723360002215), (5, 2.143531965000875)]",0.5581385126300988
group,4,22,post,3,8,clockwise,clockwise,correct,0.7835454100004426,ca,590,10,500,solo,1.670749032000458,gs,4.0,2.37766875700072,5,"[(5, 0.0004954450014338363), (4, 1.2905592639999668), (4, 2.3787934419997327)]",0.5022552839742243
group,4,23,post,3,16,anticlockwise,clockwise,wrong,0.5109700919983879,ca,550,-10,500,group,0.720378793999771,sg,4.0,1.450560792000033,5,"[(5, 0.0004752950007969048), (4, 0.4756894940001075), (4, 1.4515123820001463)]",0.5756570428022978
group,4,24,post,3,32,anticlockwise,clockwise,wrong,0.5657045769985416,ac,850,10,500,solo,0.9014556860001903,sg,2.0,1.384672624999439,5,"[(5, 0.00048187100037466735), (4, 0.31369733899919083), (3, 0.5216225669992127), (2, 1.1775827659985225), (2, 1.385440934998769)]",0.5391652420989863
group,4,25,post,-3,16,anticlockwise,anticlockwise,correct,0.5992626920015027,ac,640,10,500,solo,2.2303396280003653,sg,5.0,1.683451729000808,2,"[(2, 0.0004775519992108457), (1, 0.5165312329991139), (2, 0.9324630039991462), (3, 1.0925136629994086), (4, 1.2683748260005814), (5, 1.4282499220007594), (5, 1.6843982339996728)]",0.49226467985540023
group,4,26,pre,3,16,clockwise,clockwise,correct,0.6289287179988605,ac,500,-10,500,group,2.0489861009991728,sg,6.0,1.1368209590000333,2,"[(2, 0.0004986830008419929), (3, 0.5939658079987566), (4, 0.7217914809989452), (5, 0.8658590719987842), (6, 0.9937812440002745), (6, 1.1377655109990883)]",0.5338381931198758
group,4,27,post,-3,32,anticlockwise,anticlockwise,correct,0.9025409580008272,ca,770,0,500,solo,0.761565344999326,sg,3.0,1.296940435999204,2,"[(2, 0.00048151000009966083), (3, 0.6580737709991809), (3, 1.297839283999565)]",0.596644474575803
group,4,28,post,3,8,clockwise,clockwise,correct,0.6245468640008767,ac,640,0,500,solo,1.5509684779990494,sg,1.0,0.5030237999999372,2,"[(2, 0.00047922100020514335), (1, 0.21621085399965523), (1, 0.5039646989989706)]",0.5771029987141261
group,4,29,post,3,16,clockwise,clockwise,correct,0.5526726940006483,ac,770,0,500,solo,0.6972294000006514,sg,2.0,0.8198036570011027,1,"[(1, 0.00048028299897850957), (2, 0.43696279100004176), (2, 0.8206516119989828)]",0.5093197703726338
group,4,30,post,-3,16,anticlockwise,anticlockwise,correct,1.032487245000084,ac,590,-10,500,group,3.270091759999559,sg,6.0,1.1775166220013489,2,"[(2, 0.00047823600107221864), (3, 0.3946604220000154), (4, 0.6024083749998681), (5, 0.7785002169985091), (6, 0.9703510489998735), (6, 1.1783262459994148)]",0.5261197635901609
group,4,31,post,3,32,clockwise,clockwise,correct,0.7840998680003395,ca,640,-10,500,group,2.504061481999088,sg,4.0,1.3059636960006173,6,"[(6, 0.0004969019992131507), (5, 0.7469829360015865), (4, 0.9388526890015783), (4, 1.306948559000375)]",0.5324288670931576
group,4,32,post,-3,32,anticlockwise,anticlockwise,correct,1.2247447760000796,ca,850,0,500,solo,1.6306425179991493,sg,5.0,2.1468743799996446,6,"[(6, 0.00048064600014186), (5, 0.6119221949993516), (4, 0.7877365599997574), (3, 0.9637202789999719), (2, 1.139831595999567), (3, 1.4438682599993626), (4, 1.6196077250006056), (5, 1.7798566210003628), (5, 2.147799825999755)]",0.597508710722817
group,4,33,post,-3,8,anticlockwise,anticlockwise,correct,0.5476153420004266,ca,770,0,500,solo,0.4679142109998793,gs,6.0,0.7110351950013865,3,"[(3, 0.00047312999959103763), (4, 0.29609164700013935), (5, 0.4399716220013943), (6, 0.5999203139999736), (6, 0.7118925590002618)]",0.5336204138874822
group,4,34,post,3,64,anticlockwise,clockwise,wrong,0.7659496899996157,ac,940,-10,500,solo,0.8385695319993829,sg,1.0,1.067155423001168,5,"[(5, 0.0004991410005459329), (4, 0.33218448700063163), (3, 0.5401518540002144), (2, 0.7001486570006819), (1, 0.8760613720005495), (1, 1.067983037999511)]",0.5803547498410053
group,4,35,pre,3,32,anticlockwise,clockwise,wrong,0.47366245500052173,ac,550,10,500,group,1.4391241180001089,sg,3.0,1.788819360999696,6,"[(6, 0.000480321999930311), (5, 0.8778775010014215), (4, 1.037646680000762), (3, 1.2456332570000086), (3, 1.7897337720005453)]",0.5779086090537354
group,4,36,post,-3,64,anticlockwise,anticlockwise,correct,0.5874821119996341,ca,1150,-10,500,solo,0.555219865998879,gs,3.0,1.339657635000549,2,"[(2, 0.0005139240001881262), (3, 0.3646800059996167), (3, 1.340343836998727)]",0.5320791810971945
group,4,37,post,-3,32,anticlockwise,anticlockwise,correct,1.197876971000369,ac,640,-10,500,group,0.6922320739995484,sg,5.0,2.0139704539997183,2,"[(2, 0.0004885730013484135), (3, 0.35090029400089406), (2, 0.6390029600006528), (3, 0.8949350120001327), (4, 1.0868527610000456), (5, 1.2628203120002581), (5, 2.014901483000358)]",0.49853385564551744
group,4,38,post,3,16,clockwise,clockwise,correct,0.7236749799994868,ca,500,10,500,group,1.0049924920003832,gs,4.0,1.8678111120007088,2,"[(2, 0.0005166200007806765), (3, 1.3888213089994679), (4, 1.612773692000701), (4, 1.8686359769999399)]",0.5323152646247715
group,4,39,post,-3,64,anticlockwise,anticlockwise,correct,0.634862606999377,ca,640,10,500,solo,1.704459054999461,gs,5.0,1.4345979820009234,6,"[(6, 0.0005051409989391686), (5, 1.0356616930002929), (5, 1.4355067739998049)]",0.42325636381792736
group,4,40,pre,3,8,clockwise,clockwise,correct,0.6331489639997017,ca,850,-10,500,solo,1.0236253080001916,gs,4.0,1.7821835030008515,3,"[(3, 0.00048011199942266103), (4, 1.3511312939990603), (4, 1.7830653689998144)]",0.597903377149281
group,4,41,post,-3,16,anticlockwise,anticlockwise,correct,0.596032206000018,ac,850,-10,500,solo,0.626881317999505,sg,5.0,1.8881347540009301,3,"[(3, 0.0004811329999938607), (4, 1.40914850199988), (5, 1.56897816899982), (5, 1.888958310999442)]",0.5263352262127104
group,4,42,post,-3,8,anticlockwise,anticlockwise,correct,0.5402527089991054,ca,700,0,500,solo,0.5739574359995459,sg,5.0,0.8932756829999562,6,"[(6, 0.0004961039994668681), (5, 0.5263650260003487), (5, 0.8940394629989896)]",0.4597947438503071
group,4,43,post,3,8,clockwise,clockwise,correct,0.7236326100010047,ca,500,-10,500,group,0.9258669589999045,gs,6.0,1.213886289000584,4,"[(4, 0.0004947460001858417), (5, 0.894999189000373), (6, 1.0387144249998528), (6, 1.2148070839994034)]",0.40750582953428804
group,4,44,post,3,32,clockwise,clockwise,correct,0.5137686190009845,ca,500,0,500,group,0.6429041449991928,sg,5.0,1.3427856910002447,4,"[(4, 0.0004899909999949159), (5, 1.1037416430008307), (5, 1.3437353710014577)]",0.5741592591575762
group,4,45,post,3,64,clockwise,clockwise,correct,0.5613552459999482,ac,640,-10,500,solo,0.49701515100059623,gs,1.0,1.795008697999947,4,"[(4, 0.00048129400056495797), (3, 0.8681356510005571), (2, 1.10796576300163), (1, 1.539925019000293), (1, 1.7958595130003232)]",0.4819636082405041
group,4,46,post,3,16,clockwise,clockwise,correct,0.6565707879999536,ac,1270,-10,500,solo,0.7969424860002619,sg,2.0,0.7869315589996404,2,"[(2, 0.0004809789988939883), (2, 0.7877814019993821)]",0.5417312873342729
group,4,47,post,-3,8,anticlockwise,anticlockwise,correct,0.5527037039992138,ac,1040,0,500,solo,0.8091552989990305,sg,6.0,1.0545953889995872,2,"[(2, 0.0004842140006076079), (3, 0.30368693900163635), (4, 0.4795289520006918), (5, 0.6554905430002691), (6, 0.7992687830010254), (6, 1.0554233090006164)]",0.5510466025067001
group,4,48,post,3,32,anticlockwise,clockwise,wrong,0.5529534899997088,ac,940,0,500,solo,0.8422668129987869,sg,2.0,1.0543674740001734,6,"[(6, 0.0004948360001435503), (5, 0.27124897400062764), (4, 0.4473440199999459), (3, 0.6072801030004484), (2, 0.7673750119993201), (2, 1.0552655139999843)]",0.550318627685539
group,4,49,post,-3,64,anticlockwise,anticlockwise,correct,0.6026748730000691,ca,700,10,500,solo,0.6173557040001469,sg,4.0,1.3021270980007102,5,"[(5, 0.00047035499846970197), (4, 0.6791311029992357), (4, 1.3027961030002189)]",0.5108562732880905
group,4,50,post,3,64,anticlockwise,clockwise,wrong,0.5027147860000696,ca,1400,10,500,solo,0.5047753419985384,gs,2.0,1.4509208319996105,5,"[(5, 0.0004759580006066244), (4, 0.5560786189998908), (3, 0.7959490610010107), (2, 1.131881968000016), (2, 1.4517208010001923)]",0.5891180335720054
group,4,51,post,3,8,clockwise,clockwise,correct,0.6759322340003564,ca,1270,0,500,solo,0.7672935999999027,sg,5.0,0.9022350449995429,2,"[(2, 0.0005044059998908779), (3, 0.3434953450014291), (4, 0.4711055630014016), (5, 0.6629910600004223), (5, 0.9029981370003952)]",0.598052235978791
group,4,52,pre,-3,64,anticlockwise,anticlockwise,correct,0.5978752010014432,ac,1040,-10,500,solo,1.144263846001195,sg,4.0,1.5237097589997575,5,"[(5, 0.00047389599967573304), (4, 1.3326041990003432), (4, 1.524438069000098)]",0.4009667885571916
group,4,53,post,-3,32,clockwise,anticlockwise,wrong,0.703486044998499,ac,590,10,500,group,0.7304117029998451,sg,5.0,1.299084217998825,4,"[(4, 0.000511795000420534), (3, 0.6120722710002156), (4, 0.9321436690006522), (5, 1.108037478001279), (5, 1.2998325170010503)]",0.457131326228933
group,4,54,post,-3,16,anticlockwise,anticlockwise,correct,0.6479092959998525,ca,700,10,500,solo,0.5317190799996752,sg,6.0,1.7486899089999497,2,"[(2, 0.00047817100130487233), (3, 0.42161489499994786), (4, 0.7096370609997393), (5, 1.0456354849993659), (6, 1.2057219660000555), (6, 1.7494827749997057)]",0.46233220173311707
group,4,55,post,3,16,clockwise,clockwise,correct,0.42525455900067755,ac,940,10,500,solo,1.2471032540015585,sg,1.0,1.3782657780011505,6,"[(6, 0.0004981549991498468), (5, 0.5955079890009074), (4, 0.7552391240005818), (3, 0.9151977060009813), (2, 1.0591557230000035), (1, 1.1871612700015248), (1, 1.37900936799997)]",0.49959412286421345
group,4,56,post,-3,32,anticlockwise,anticlockwise,correct,0.48072314499950153,ca,500,10,500,group,1.2198934040006861,gs,6.0,1.353321631999279,2,"[(2, 0.0004778740003530402), (3, 0.6662595240013616), (4, 0.890296773000955), (5, 1.0342892780008697), (6, 1.1942683890010812), (6, 1.3540114420011378)]",0.5432878525250736
group,4,57,post,3,8,clockwise,clockwise,correct,0.5738261599999532,ac,550,-10,500,group,1.0698988459989778,sg,4.0,1.2730196440006694,1,"[(1, 0.00046876200030965265), (2, 0.48995637299958616), (3, 0.6498412129985809), (4, 0.8419731099984347), (4, 1.2739733449998312)]",0.41281994262136423
group,4,58,post,3,64,anticlockwise,clockwise,wrong,0.47506981500009715,ca,770,0,500,solo,0.511643013000139,gs,3.0,1.0247969780011772,1,"[(1, 0.000488292000227375), (2, 0.593849078999483), (3, 0.8015648669988877), (3, 1.025598780999644)]",0.528731627663075
group,4,59,post,-3,16,anticlockwise,anticlockwise,correct,0.6565695619992766,ac,940,10,500,solo,0.8446924270010641,sg,5.0,0.9134252240000933,4,"[(4, 0.0005076149991509737), (5, 0.3861709440006962), (5, 0.9141913900002692)]",0.443681349784999
group,4,60,post,3,32,clockwise,clockwise,correct,0.8976492479996523,ca,1040,10,500,solo,0.707755625999198,gs,3.0,1.2457492439989437,2,"[(2, 0.0005211369989410741), (3, 0.8468440140004532), (3, 1.2466384760009532)]",0.5518644145514551
group,4,61,pre,-3,32,anticlockwise,anticlockwise,correct,0.44375813899932837,ac,640,0,500,group,1.3409094369999366,gs,6.0,1.3124610759987263,2,"[(2, 0.0004839249995711725), (3, 0.7066138720001618), (4, 0.8814354400001321), (5, 1.0413819110017357), (6, 1.2013774080005533), (6, 1.3132734060000075)]",0.5465837354450378
group,4,62,post,-3,64,anticlockwise,anticlockwise,correct,0.5783421659998567,ca,1040,10,500,solo,0.512971825999557,gs,3.0,0.8028533479991893,2,"[(2, 0.0004816630007553613), (3, 0.3559751150005468), (3, 0.8037525170002482)]",0.5209492413178108
group,4,63,post,-3,8,anticlockwise,anticlockwise,correct,0.6939972550007951,ac,1400,0,500,solo,0.513951310000266,gs,6.0,0.6750247110012424,3,"[(3, 0.00048453300041728653), (4, 0.27609593300076085), (5, 0.4358227449993137), (6, 0.5959361469995201), (6, 0.6759202810007992)]",0.5690552889947014
group,4,64,post,3,64,clockwise,clockwise,correct,0.6564716150005552,ca,1040,0,500,solo,0.8610762129992509,gs,1.0,1.3927064629988308,2,"[(2, 0.0005149569988134317), (1, 1.2017699970001559), (1, 1.3935535620003066)]",0.45466525679534076
group,4,65,post,-3,64,anticlockwise,anticlockwise,correct,0.5111070240000117,ca,590,10,500,group,1.265585290000672,sg,3.0,1.3012500219992944,4,"[(4, 0.00047626100058550946), (3, 0.9979483850001998), (3, 1.3018744199998764)]",0.4977073228861914
group,4,66,post,3,32,anticlockwise,clockwise,wrong,0.5634379369985254,ca,550,10,500,group,0.9156306389995734,sg,5.0,1.6852984679990186,1,"[(1, 0.00047732399980304763), (2, 0.3903476689993113), (3, 0.9020204019998346), (4, 1.254042008000397), (5, 1.4460527829996863), (5, 1.6861707360003493)]",0.5969447725813071
group,4,67,post,3,8,clockwise,clockwise,correct,0.6464721570009715,ca,1150,-10,500,solo,0.4839940519996162,gs,3.0,1.7986491310002748,1,"[(1, 0.00048578799942333717), (2, 0.5035789119992842), (3, 0.8395191979998344), (3, 1.7994272539999656)]",0.5448067316081031
group,4,68,post,3,16,clockwise,clockwise,correct,0.567237536999528,ca,640,10,500,solo,0.8396586390008451,gs,4.0,0.9881171110009745,3,"[(3, 0.0005012750007153954), (4, 0.4448656780004967), (4, 0.9890812579997146)]",0.4414690952993268
group,4,69,post,-3,32,anticlockwise,anticlockwise,correct,0.4785369109995372,ca,1150,0,500,solo,0.6255726969993702,gs,1.0,1.2786624549989938,3,"[(3, 0.00047965900012059137), (2, 0.8796490740005538), (1, 1.0554285220005113), (1, 1.2793785489993752)]",0.43254780327328013
group,4,70,post,-3,16,anticlockwise,anticlockwise,correct,0.49923849900005735,ca,550,0,500,group,1.0135377370006609,gs,6.0,0.7383840500006045,4,"[(4, 0.0005100800008221995), (5, 0.21128586499980884), (6, 0.45124286499958544), (6, 0.7391265419992123)]",0.47286593086278395
group,4,71,pre,-3,16,anticlockwise,anticlockwise,correct,0.3482043620006152,ca,770,-10,500,group,1.8019661529997393,gs,6.0,1.2035382390004088,2,"[(2, 0.0005017479998059571), (3, 0.24452404899966496), (4, 0.3884315420000348), (5, 0.5645063299998583), (6, 0.7245233270004974), (6, 1.2044555299999047)]",0.4334045242532067
group,4,72,post,-3,8,anticlockwise,anticlockwise,correct,0.7003350159993715,ac,640,0,500,solo,0.42415052599972114,gs,5.0,1.4373316729997896,1,"[(1, 0.0004910600000584964), (2, 0.5743138260004343), (3, 0.9103040480003983), (4, 1.0862664809992566), (5, 1.2462149339989992), (5, 1.4381541029997607)]",0.45330585125936856
group,4,73,post,-3,16,anticlockwise,anticlockwise,correct,0.6199037980004505,ac,770,10,500,solo,0.8101472300004389,sg,4.0,0.8640415930003655,3,"[(3, 0.00048536000031162985), (4, 0.5131425889994716), (4, 0.8648983619987121)]",0.44668093619772353
group,4,74,post,3,8,clockwise,clockwise,correct,0.5793016360003094,ac,850,10,500,solo,0.7223662479991617,sg,3.0,1.867239769000662,1,"[(1, 0.00048465100007888395), (2, 0.39619805599977553), (3, 0.5722033679994638), (4, 0.7320829820000654), (3, 1.5801421550004306), (3, 1.8680586339996808)]",0.5288411138870034
group,4,75,post,3,32,clockwise,clockwise,correct,0.7152055210008257,ca,1270,10,500,solo,0.5496168019999459,gs,4.0,2.117071141999986,5,"[(5, 0.00048051600060716737), (4, 0.5341954120012815), (3, 0.7899267840002722), (4, 1.9260366210000939), (4, 2.1178349279998656)]",0.41536673660120665
group,4,76,post,3,64,clockwise,clockwise,correct,0.6635825230005139,ca,500,10,500,group,1.2039936450000823,gs,3.0,1.594163251000282,6,"[(6, 0.0004976970012648962), (5, 0.6352666509992559), (4, 0.9871595189997606), (3, 1.195095875998959), (3, 1.5949870019994705)]",0.492026628392713
group,4,77,post,-3,32,clockwise,anticlockwise,wrong,0.6411099910001212,ca,1270,0,500,solo,0.7823502840001311,sg,4.0,1.3333850759991037,6,"[(6, 0.0005096969998703571), (5, 0.3743642310000723), (4, 0.5181255129991769), (4, 1.3340237749998778)]",0.4770065590138408
group,4,78,post,-3,8,anticlockwise,anticlockwise,correct,0.5164653360006923,ac,550,10,500,solo,0.7584419590002653,sg,6.0,0.573836837998897,5,"[(5, 0.0004843299993808614), (6, 0.27109401800044), (6, 0.5747911070011469)]",0.5890816648790149
group,4,79,post,3,16,clockwise,clockwise,correct,0.7148949620004714,ca,1040,-10,500,solo,0.6289999450000323,gs,2.0,1.3141723459993955,1,"[(1, 0.00048682300075597595), (2, 0.41913614599980065), (3, 0.6110347890007688), (2, 1.0911018989991135), (2, 1.3150541380000504)]",0.5658076975346145
group,4,80,post,-3,64,clockwise,anticlockwise,wrong,1.3019466009991447,ac,770,10,500,group,1.015936136000164,sg,3.0,1.2533868399987114,4,"[(4, 0.00047890300083963666), (3, 0.4385277679994033), (2, 0.6144313099994179), (3, 1.094357014999332), (3, 1.2543164269991394)]",0.47297194540443954
group,4,81,pre,-3,64,anticlockwise,anticlockwise,correct,0.6733411849982076,ac,1270,10,500,solo,0.8897523889991135,sg,1.0,1.804689980999683,6,"[(6, 0.00047912599984556437), (5, 0.5736022729997785), (4, 0.7975163280007109), (3, 0.9735032160006085), (2, 1.133470673001284), (1, 1.629531059999863), (1, 1.8054388770015066)]",0.4001272698653175
group,4,82,pre,3,64,clockwise,clockwise,correct,0.5125846139999339,ca,590,10,500,group,1.4295543669995823,sg,3.0,1.5215545299997757,6,"[(6, 0.00048350600081903394), (5, 0.4504584670012264), (4, 0.6422470199995587), (3, 1.0105962320012623), (3, 1.522296594999716)]",0.5548497572987305
group,4,83,post,-3,16,anticlockwise,anticlockwise,correct,0.9407459699996252,ca,1400,10,500,solo,0.4458518320006988,gs,5.0,1.3132660339997528,2,"[(2, 0.0005127910008013714), (3, 0.5623266500006139), (4, 0.7381055149999156), (5, 0.946193748000951), (5, 1.3142186290006066)]",0.49772124366883685
group,4,84,post,-3,64,anticlockwise,anticlockwise,correct,0.5615999459987506,ca,500,0,500,group,2.353169624999282,sg,4.0,1.3693539870000677,2,"[(2, 0.0005068369991931831), (3, 0.6184402299986687), (4, 0.7781157689987594), (4, 1.3704216810001526)]",0.5635374135138687
group,4,85,post,3,16,clockwise,clockwise,correct,0.524662828000146,ac,1150,10,500,solo,0.4626792299986846,gs,4.0,1.170394340000712,3,"[(3, 0.0005336920003173873), (4, 0.9314712310006144), (4, 1.171226602000388)]",0.42254314005208904
group,4,86,post,3,8,clockwise,clockwise,correct,0.4738431869991473,ac,1400,-10,500,solo,0.3667906549999316,gs,5.0,0.9180873619989143,2,"[(2, 0.0004757009992317762), (3, 0.32710836400110566), (4, 0.4869039680015703), (5, 0.6468501489998744), (5, 0.918945330000497)]",0.5106489576461727
group,4,87,post,3,32,anticlockwise,clockwise,wrong,0.5226022380011273,ca,770,-10,500,solo,0.9098787030015956,gs,2.0,1.0868150400001468,1,"[(1, 0.0004803539995918982), (2, 0.49578596299943456), (2, 1.0874714920009865)]",0.41971854228381067
group,4,88,post,3,64,anticlockwise,clockwise,wrong,0.5197182039992185,ca,590,-10,500,solo,3.2253110929996183,gs,3.0,1.3746538649993454,4,"[(4, 0.0004701079997175839), (3, 0.7676205159987148), (3, 1.3755818439985887)]",0.5695035375031678
group,4,89,post,-3,8,anticlockwise,anticlockwise,correct,0.6701052930002334,ca,850,0,500,solo,0.6977105400001165,sg,5.0,1.5561066669997672,1,"[(1, 0.0004952079998474801), (2, 0.5332104839999374), (3, 0.6930441460008296), (4, 0.8689395370001876), (5, 1.252837157000613), (5, 1.5567690030002268)]",0.5192648501074084
group,4,90,post,-3,32,anticlockwise,anticlockwise,correct,0.4795912130011857,ca,1400,10,500,solo,0.6108200130001933,sg,2.0,1.0561410699992848,4,"[(4, 0.0004974479998054449), (3, 0.5611126260009769), (2, 0.8011647320017801), (2, 1.0570040210004663)]",0.43954626754588694
group,4,91,post,-3,16,anticlockwise,anticlockwise,correct,0.6227041589991131,ac,1150,-10,500,solo,0.5889107550010522,gs,5.0,1.4523344049994193,4,"[(4, 0.00048765399878902826), (3, 0.6373605400003726), (4, 0.9893280649994267), (5, 1.2131060360006813), (5, 1.4531099470004847)]",0.44058346824155376
group,4,92,post,-3,32,anticlockwise,anticlockwise,correct,0.695664549999492,ca,550,-10,500,solo,1.506644287999734,gs,5.0,1.9485787489993527,6,"[(6, 0.0004803929987247102), (6, 0.6056127859992557), (5, 1.0696366329993907), (5, 1.9494803859997774)]",0.5171179003466984
group,4,93,post,3,32,anticlockwise,clockwise,wrong,1.3664608039998711,ca,1150,10,500,solo,0.6956835100008902,gs,2.0,1.217529800000193,6,"[(6, 0.0004843139995500678), (5, 0.3068362750000233), (4, 0.48292222599957313), (3, 0.6587907929988432), (2, 0.9787775839995447), (2, 1.2187959489983768)]",0.4677563838404417
group,4,94,post,3,8,clockwise,clockwise,correct,0.6762672679997195,ca,940,0,500,solo,0.7687123249997967,sg,5.0,0.7600042710000707,4,"[(4, 0.0005197549999138573), (5, 0.45703219499955594), (5, 0.7608187349997024)]",0.5594158492422944
group,4,95,post,3,16,clockwise,clockwise,correct,1.0205758960000821,ca,590,10,500,group,1.050312154000494,sg,4.0,1.0790594210011477,6,"[(6, 0.0004779090013471432), (5, 0.42419132399845694), (4, 0.6319503499998973), (4, 1.0798732129987911)]",0.5755261832744492
group,4,96,post,-3,64,anticlockwise,anticlockwise,correct,3.0291399369998544,ca,940,-10,500,group,1.1388152740000805,sg,4.0,1.3871156360000896,3,"[(3, 0.0004782390005857451), (2, 0.5401006769989181), (3, 0.8761745669999073), (4, 1.0840863519988488), (4, 1.387825977999455)]",0.4372800248354065
group,4,97,post,3,64,clockwise,clockwise,correct,0.7594622899996466,ca,550,0,500,group,0.9435284549999778,sg,3.0,1.4233101549998537,4,"[(4, 0.0004806609995284816), (3, 0.6881993449987931), (3, 1.4241809750001266)]",0.5973760461582628
group,4,98,post,-3,8,anticlockwise,anticlockwise,correct,0.6526145030002226,ac,500,0,500,solo,2.3300189250003314,sg,5.0,0.9779718090012466,5,"[(5, 0.0005166420014575124), (5, 0.9786661330017523)]",0.5174397200013964
group,4,99,pre,-3,16,anticlockwise,anticlockwise,correct,0.7776480409993383,ac,940,10,500,solo,0.9872257830011222,sg,3.0,1.2646612230000756,4,"[(4, 0.0005034259993408341), (3, 1.0575917469996057), (3, 1.2656233459983923)]",0.5432018423235985
group,4,100,post,-3,32,clockwise,anticlockwise,wrong,0.582502346000183,ac,700,-10,500,solo,0.7732966599996871,gs,2.0,1.0204521289997501,3,"[(3, 0.0004967050008417573), (2, 0.8135191560013482), (2, 1.0214699640000617)]",0.4625037121735526
group,4,101,post,3,64,anticlockwise,clockwise,wrong,0.5915472180004144,ca,1150,-10,500,solo,0.5428078700006154,gs,1.0,1.3903601439997146,4,"[(4, 0.00047655699927418027), (3, 0.7832641450004303), (2, 0.9433525439999357), (1, 1.1034666760006075), (1, 1.3911617830017349)]",0.4006103490731068
group,4,102,post,-3,8,anticlockwise,anticlockwise,correct,0.7773171019998699,ac,1270,0,500,solo,0.7369999389993609,sg,5.0,1.0182410430006712,2,"[(2, 0.0004870890006714035), (3, 0.49133178900046914), (4, 0.6992027070009499), (5, 0.8431206790010037), (5, 1.019158884000717)]",0.572762885598539
group,4,103,post,3,8,clockwise,clockwise,correct,0.5538353169995389,ca,1040,0,500,solo,0.6183485450001172,gs,2.0,0.8728343499988114,4,"[(4, 0.0004962379989592591), (3, 0.3939219160001812), (2, 0.6016991720007354), (2, 0.8736338489998161)]",0.439276627027569
group,4,104,post,3,32,clockwise,clockwise,correct,0.6368587329998263,ca,590,-10,500,group,0.7625516139996762,gs,5.0,0.9128794660009589,4,"[(4, 0.00048274400069203693), (5, 0.7537920389986539), (5, 0.9136241779997363)]",0.4997453483537563
group,4,105,pre,-3,16,anticlockwise,anticlockwise,correct,0.5063143970000965,ca,1400,0,500,solo,1.1689651289998437,gs,3.0,1.1953566780011897,5,"[(5, 0.00048754199997347314), (4, 0.7003667919998406), (3, 0.9404166790009185), (3, 1.1962960430009844)]",0.46945511855727196
group,4,106,post,3,16,clockwise,clockwise,correct,0.5650879140011966,ac,850,-10,500,solo,0.9811327019997407,sg,3.0,1.1561359879997326,1,"[(1, 0.000474067001050571), (1, 0.37308063300042704), (2, 0.5328832729992428), (3, 0.7569139419993007), (3, 1.1570427240003482)]",0.43109165481575357
group,4,107,post,-3,64,clockwise,anticlockwise,wrong,0.6171586999989813,ac,850,0,500,solo,1.1271430800006783,gs,2.0,1.1511113669985207,6,"[(6, 0.0005106389999127714), (5, 0.4162054340013128), (4, 0.592028865001339), (3, 0.7840662119997432), (2, 0.9601082740009588), (2, 1.15196264000042)]",0.5996768354718388
group,4,108,post,-3,16,anticlockwise,anticlockwise,correct,0.8067570019993582,ac,500,-10,500,group,0.8137596920005308,sg,2.0,2.130905743999392,5,"[(5, 0.0005035480007791193), (4, 0.5958616850002727), (3, 1.0279136190001736), (2, 1.2200569400010863), (1, 1.5398967370001628), (2, 1.9398970450001798), (2, 2.131781984000554)]",0.5483267843403883
