task,id,trial,order,ori_mean,ori_var,judge,answer,result,judge_rt,line_pos,payoff_solo,payoff_jitter,payoff_group,choice,choice_rt,option_pos,rating,rating_rt,rating_init,rating_history,iti
group,38,1,post,-3,8,anticlockwise,anticlockwise,correct,0.7913777440007834,ca,550,0,500,solo,1.5974336669987679,gs,3.0,2.62607198600017,1,"[(1, 0.0003802430001087487), (2, 1.8747538059997169), (3, 2.2269174920002115), (3, 2.627122400999724)]",0.5474941005467566
group,38,2,post,-3,64,anticlockwise,anticlockwise,correct,1.7131048179999198,ac,850,-10,500,group,1.1551816150004015,gs,4.0,1.8829335539994645,1,"[(1, 0.0005016579998482484), (2, 0.587758883000788), (3, 0.8279089570005453), (4, 1.5639906390006217), (4, 1.8838196500000777)]",0.45986055096058337
group,38,3,post,3,8,clockwise,clockwise,correct,0.697865312000431,ac,770,-10,500,solo,1.1237219659997209,sg,4.0,1.4051648230015417,5,"[(5, 0.0005180980006116442), (4, 0.8302275210007792), (4, 1.4060747690000426)]",0.4340202554105178
group,38,4,post,-3,16,anticlockwise,anticlockwise,correct,1.0522830089994386,ca,940,-10,500,solo,1.4486512840012438,gs,5.0,2.6844127730000764,2,"[(2, 0.0005274329996609595), (3, 0.7013986259989906), (4, 1.0052743369997188), (5, 1.1811694219995843), (6, 1.2784430640003848), (5, 2.397558585000297), (5, 2.685384108999642)]",0.4492487166619334
group,38,5,post,3,32,clockwise,clockwise,correct,0.9872288950009533,ac,1270,10,500,solo,0.7629369210008008,gs,5.0,1.0099604509996425,4,"[(4, 0.0005618870000034804), (5, 0.6587169019985595), (5, 1.0108191079998505)]",0.42252473218368153
group,38,6,pre,-3,16,clockwise,anticlockwise,wrong,1.5237490630006505,ca,770,-10,500,solo,3.514046276000954,sg,3.0,1.4833148030011216,2,"[(2, 0.0006706369986204663), (3, 0.7003944759999285), (3, 1.4842632519994368)]",0.5374830967153299
group,38,7,post,3,64,clockwise,clockwise,correct,1.9261108889986644,ac,700,10,500,group,1.3280302450002637,gs,3.0,1.4410490940008458,1,"[(1, 0.00048606900054437574), (2, 0.5781534849993477), (3, 0.8500629019999906), (3, 1.4419567949989869)]",0.535946240433761
group,38,8,post,3,16,clockwise,clockwise,correct,0.6835840000003373,ca,640,-10,500,solo,0.8066273870008445,gs,4.0,1.5486860919991159,1,"[(1, 0.0004762860007758718), (2, 0.5255977390006592), (3, 0.7497275599998829), (4, 1.2136545080011274), (4, 1.5495873119998578)]",0.5545457930515373
group,38,9,post,-3,32,anticlockwise,anticlockwise,correct,0.9296543820000807,ac,850,0,500,solo,0.8347348510014854,gs,5.0,1.1442702880012803,4,"[(4, 0.000479615000585909), (5, 0.6653585009989911), (5, 1.1451044059995183)]",0.5936501143191981
group,38,10,post,-3,16,anticlockwise,anticlockwise,correct,0.9128888959985488,ac,700,0,500,group,1.0913535479994607,sg,5.0,1.9178873450000538,1,"[(1, 0.00047909500062814914), (2, 0.5429374530012865), (3, 0.7669352120010444), (4, 0.9426612200004456), (5, 1.5508639150011732), (5, 1.9188057740011573)]",0.4852968571653914
group,38,11,pre,3,8,clockwise,clockwise,correct,0.6092334179993486,ca,500,-10,500,group,2.463496211999882,gs,6.0,1.5343388769997546,3,"[(3, 0.0004834179999306798), (4, 0.8313039519998711), (5, 1.0553322169998864), (6, 1.2311712270002317), (6, 1.5352047809992655)]",0.5807319188000646
group,38,12,post,-3,64,clockwise,anticlockwise,wrong,0.7151252259991452,ac,1150,0,500,solo,0.8839494000003469,gs,2.0,1.6864279609999357,5,"[(5, 0.0005127969998284243), (4, 0.4874168610003835), (3, 0.9673512780009332), (2, 1.1755143540012796), (2, 1.6872958340009063)]",0.42401590589814653
group,38,13,post,3,32,clockwise,clockwise,correct,0.6491350140004215,ca,850,-10,500,solo,0.7412241940000968,gs,5.0,1.1016701200005627,3,"[(3, 0.0004989539993403014), (4, 0.5106575709996832), (5, 0.7185769009993237), (5, 1.1026700530001108)]",0.5135991439930685
group,38,14,post,3,16,clockwise,clockwise,correct,0.5978819850006403,ac,1150,0,500,solo,1.1250284380002995,sg,5.0,1.1819093880003493,4,"[(4, 0.00047451600039494224), (5, 0.8628913930006092), (5, 1.1829174390004482)]",0.5646701892719158
group,38,15,post,-3,32,anticlockwise,anticlockwise,correct,1.1879428180000104,ca,1270,-10,500,solo,0.9872852970001986,gs,2.0,1.5612588959993445,4,"[(4, 0.000478642999951262), (3, 0.6983495920012501), (2, 1.194183587000225), (2, 1.5622154619995854)]",0.502746529255397
group,38,16,post,3,64,clockwise,clockwise,correct,0.799174880999999,ac,1150,-10,500,solo,0.934095716000229,gs,4.0,2.7580701669994596,3,"[(3, 0.0004728659987449646), (4, 0.4711037410015706), (5, 0.7430107360014517), (4, 1.3510637690014846), (3, 1.9910990390017105), (4, 2.4871097930008546), (4, 2.7589508990004106)]",0.5710801618243753
group,38,17,post,3,8,clockwise,clockwise,correct,0.5135742160000518,ca,1400,-10,500,solo,1.010947454999041,sg,6.0,1.888198551001551,2,"[(2, 0.0005717939984606346), (3, 0.6732330009999714), (4, 0.8810843599985674), (5, 1.1051826719995006), (6, 1.4570340089994716), (6, 1.8889438400001382)]",0.43435563467769767
group,38,18,post,-3,8,anticlockwise,anticlockwise,correct,0.9231977809995442,ca,500,-10,500,group,1.2761308209992421,sg,6.0,1.423647706000338,4,"[(4, 0.000478853000458912), (5, 0.6727050789995701), (6, 1.0887853409985837), (6, 1.424636116998954)]",0.5010064728015959
group,38,19,post,-3,64,clockwise,anticlockwise,wrong,1.513964746000056,ac,1400,10,500,solo,0.882880072998887,gs,4.0,1.4773388890007482,5,"[(5, 0.000479922999147675), (4, 0.422531036001601), (3, 0.7103275680001389), (4, 1.2224516400001448), (4, 1.4782903640007135)]",0.5766576250938571
group,38,20,post,3,16,clockwise,clockwise,correct,0.47945437999987917,ac,940,10,500,solo,1.1386000250004145,sg,3.0,1.9457924380003533,3,"[(3, 0.0004802490002475679), (4, 0.4749114340011147), (3, 1.0826845629999298), (3, 1.946705322001435)]",0.5438904358853676
group,38,21,post,-3,8,anticlockwise,anticlockwise,correct,0.4323319920003996,ac,940,10,500,solo,0.980477499000699,gs,4.0,1.1078739699987636,3,"[(3, 0.00048038000022643246), (4, 0.3249620290007442), (4, 1.1088943609993294)]",0.5538384836875967
group,38,22,post,-3,16,clockwise,anticlockwise,wrong,1.2006463479992817,ca,500,10,500,group,1.0633177649997378,sg,4.0,1.410811981999359,5,"[(5, 0.00048450100075569935), (4, 0.8358753829998022), (4, 1.4116896080013248)]",0.44752788503137175
group,38,23,pre,-3,8,clockwise,anticlockwise,wrong,0.8938726649994351,ca,940,-10,500,solo,2.2059079539994855,gs,3.0,1.567766644000585,5,"[(5, 0.0005036949987697881), (4, 0.7367326639996463), (3, 1.1525864489995001), (3, 1.5686005899988231)]",0.470616433119919
group,38,24,post,3,8,clockwise,clockwise,correct,0.7102191670001048,ac,1040,-10,500,solo,0.8165973360009957,gs,4.0,1.830235695999363,1,"[(1, 0.000491703000079724), (2, 0.40741921400149295), (3, 0.6150167390005663), (4, 1.4791447800016613), (4, 1.8310266210010013)]",0.5314199767991968
group,38,25,post,3,32,clockwise,clockwise,correct,0.6743003369992948,ac,640,-10,500,group,0.7171803119999822,gs,2.0,1.222600703000353,1,"[(1, 0.0005140339999343269), (2, 0.6317843970009562), (2, 1.223535234999872)]",0.5366838502197787
group,38,26,post,-3,32,anticlockwise,anticlockwise,correct,0.8753271619989391,ca,550,10,500,solo,1.4229336469998088,sg,2.0,1.6123161470004561,1,"[(1, 0.00049210200086236), (2, 1.1491807189995598), (2, 1.613326603999667)]",0.5364550319592056
group,38,27,post,3,64,clockwise,clockwise,correct,2.498754127000211,ac,1270,0,500,solo,0.7095908470000722,gs,3.0,1.6310685769985867,2,"[(2, 0.0004894989997410448), (3, 0.7521298819992808), (3, 1.632090368999343)]",0.48789471459056655
group,38,28,post,3,64,anticlockwise,clockwise,wrong,1.3294281079997745,ca,850,10,500,group,0.8354082580008253,gs,5.0,0.935410956000851,6,"[(6, 0.00047010299931571353), (5, 0.5204985959990154), (5, 0.9363690789996326)]",0.5780611174156411
group,38,29,post,-3,8,anticlockwise,anticlockwise,correct,0.8767820459997893,ac,640,-10,500,solo,0.687724518998948,sg,5.0,2.1861605289996078,4,"[(4, 0.000473095000415924), (5, 0.8752440150001348), (5, 2.1871035040003335)]",0.4000214249106564
group,38,30,post,3,16,clockwise,clockwise,correct,1.751741199999742,ca,1400,10,500,solo,0.9841086300002644,gs,3.0,1.6395177450012852,2,"[(2, 0.000758631998905912), (1, 0.48846063199925993), (2, 1.0322490809994633), (3, 1.2243574559997796), (3, 1.640468890998818)]",0.5498795151258257
group,38,31,post,3,8,clockwise,clockwise,correct,0.6549479620007332,ac,640,10,500,solo,1.0194454739994399,gs,4.0,1.0795483719994081,3,"[(3, 0.0005213069998717401), (4, 0.58436453899958), (4, 1.0804495840002346)]",0.4563391002167499
group,38,32,post,3,32,clockwise,clockwise,correct,0.5932747089991608,ac,1400,-10,500,solo,0.6887150599995948,gs,4.0,1.5624308990009013,2,"[(2, 0.0005103450002934551), (1, 0.3154710110011365), (2, 0.8752807279997796), (3, 1.067350549999901), (4, 1.2432124229999317), (4, 1.563338850000946)]",0.5444331822429145
group,38,33,pre,3,64,clockwise,clockwise,correct,1.9506897179999214,ca,1150,0,500,solo,3.7577171129996714,sg,1.0,1.9263124169992807,6,"[(6, 0.0004929049991915235), (5, 0.7593053620003047), (4, 0.9991089840004861), (3, 1.1750989859992842), (2, 1.3832016289998137), (1, 1.6232008850001876), (1, 1.9273130660003517)]",0.49003696901761884
group,38,34,post,-3,16,anticlockwise,anticlockwise,correct,2.0681325219993596,ac,640,10,500,group,0.903024467999785,sg,2.0,1.4174756600004912,5,"[(5, 0.0004759380008181324), (4, 0.5704424689993175), (3, 0.8423690109993913), (2, 1.0666398679986742), (2, 1.418445018998682)]",0.40748989306648187
group,38,35,post,-3,64,anticlockwise,anticlockwise,correct,0.5545121560007829,ac,700,-10,500,solo,1.8991948330003652,sg,1.0,0.485230854999827,1,"[(1, 0.00047667800026829354), (1, 0.486012708999624)]",0.42521573932449486
group,38,36,post,-3,32,clockwise,anticlockwise,wrong,1.2848353779991157,ca,1040,-10,500,group,1.4967343089992937,gs,4.0,0.6268750449999061,4,"[(4, 0.0005206280002312269), (4, 0.6278919159994985)]",0.5536570368557594
group,38,37,post,3,8,clockwise,clockwise,correct,0.6224748160002491,ca,1150,0,500,solo,0.9401056410006277,sg,3.0,1.6766325939988747,2,"[(2, 0.0005089810001663864), (1, 0.5095516549990862), (2, 1.1334781059995294), (3, 1.3574561119985447), (3, 1.6775711389982462)]",0.5308143266128589
group,38,38,post,-3,16,anticlockwise,anticlockwise,correct,1.7476178590004565,ac,1270,10,500,solo,0.772358627000358,gs,4.0,0.33176619400001073,4,"[(4, 0.0005044810004619649), (4, 0.3327573980004672)]",0.4160628895570051
group,38,39,post,3,32,clockwise,clockwise,correct,0.770190287999867,ac,700,10,500,group,1.0813568670000677,sg,4.0,1.700180724999882,3,"[(3, 0.0004959439993399428), (4, 1.3972127309989446), (4, 1.7012393000004522)]",0.5476211124301806
group,38,40,post,3,64,clockwise,clockwise,correct,1.971688476000054,ca,770,-10,500,group,0.9067354299986619,sg,1.0,2.2052988300001743,2,"[(2, 0.00048250100007862784), (3, 0.5422784479997063), (4, 1.0702094249991205), (3, 1.534255155998835), (2, 1.7262285059987335), (1, 1.9182638279999082), (1, 2.206264303998978)]",0.5733505558455796
group,38,41,post,-3,32,clockwise,anticlockwise,wrong,1.6118601310008671,ac,940,10,500,solo,0.8673607569999149,sg,2.0,0.6297706059995107,2,"[(2, 0.0005035100002714898), (2, 0.6305423499998142)]",0.4794631971098732
group,38,42,pre,3,32,clockwise,clockwise,correct,1.9563447860000451,ca,1270,10,500,solo,1.5979405119996954,gs,6.0,2.0108534219998546,4,"[(4, 0.0005130610006744973), (5, 1.019887213000402), (6, 1.595944139000494), (6, 2.011762723999709)]",0.522327625684515
group,38,43,post,3,16,clockwise,clockwise,correct,0.9806429639993439,ac,550,0,500,solo,1.4750997200007987,sg,3.0,0.7508265899996331,3,"[(3, 0.0004760819992952747), (3, 0.7517701220003801)]",0.42385297118453547
group,38,44,post,-3,8,anticlockwise,anticlockwise,correct,0.6111754039993684,ca,1270,10,500,solo,0.8806694980012253,sg,4.0,1.7477092539993464,2,"[(2, 0.0005038069994043326), (1, 0.3406557479993353), (2, 0.9646495409997442), (3, 1.140688333000071), (4, 1.3166882469995471), (4, 1.7485994809994736)]",0.5982967522003728
group,38,45,post,-3,64,anticlockwise,anticlockwise,correct,1.1727058319993375,ca,1040,10,500,group,1.0683997830001317,sg,1.0,1.3026999169996998,2,"[(2, 0.00048055800107249524), (1, 0.9837531200009835), (1, 1.303646504000426)]",0.49783021176256625
group,38,46,post,-3,64,anticlockwise,anticlockwise,correct,1.5421756279993133,ac,500,10,500,group,1.1666509450005833,gs,5.0,2.7735092109996913,6,"[(6, 0.0004847740001423517), (5, 0.6465845839993563), (4, 0.854384571999617), (3, 1.0784910450001917), (4, 1.6224326390001806), (5, 2.278352215000268), (5, 2.7744552210006077)]",0.5924320789934574
group,38,47,post,3,64,clockwise,clockwise,correct,1.883495034000589,ac,1040,0,500,solo,0.839816471998347,gs,3.0,1.4351232859989977,2,"[(2, 0.0005021020006097388), (1, 0.4281380810007249), (2, 0.8921070070009591), (3, 1.1001605550009117), (3, 1.4360651960014366)]",0.523397612406524
group,38,48,post,3,32,clockwise,clockwise,correct,0.7273919409999507,ca,770,-10,500,group,0.8175235069993505,gs,3.0,0.27802839700052573,3,"[(3, 0.0004757270016852999), (3, 0.2789687140011665)]",0.511507401388967
group,38,49,post,-3,32,clockwise,anticlockwise,wrong,0.8940178169996216,ac,1400,-10,500,solo,0.944628641998861,sg,3.0,1.53722584299976,1,"[(1, 0.0004963589999533724), (2, 0.9622235389997513), (3, 1.1700903640012257), (3, 1.5381641010008025)]",0.5915962203791925
group,38,50,pre,3,8,clockwise,clockwise,correct,1.226907486001437,ca,640,0,500,group,1.5231958639997174,sg,5.0,2.607506640999418,6,"[(6, 0.0004839350003749132), (5, 0.944547988998238), (6, 1.6163796999990154), (5, 2.2083324499999435), (5, 2.6084155029984686)]",0.5384780692694067
group,38,51,post,-3,8,anticlockwise,anticlockwise,correct,1.5314947679999023,ac,1150,10,500,solo,1.1248082480015,gs,3.0,1.21348043999933,1,"[(1, 0.00046953400124039035), (2, 0.6385868420002225), (3, 0.8943757549986913), (3, 1.2144954630002758)]",0.5527220388467255
group,38,52,post,3,16,clockwise,clockwise,correct,1.1869123999986186,ac,500,0,500,group,2.810030590000679,sg,6.0,1.0872305470002175,3,"[(3, 0.0004774919998453697), (4, 0.4003347620000568), (5, 0.5760427530003653), (6, 0.7359242910006287), (6, 1.0879727169995022)]",0.5373868276177795
group,38,53,post,3,8,clockwise,clockwise,correct,0.6004851519992371,ac,500,-10,500,solo,0.8070008700015023,sg,1.0,3.196338765999826,3,"[(3, 0.000474963000669959), (2, 0.14121250300013344), (3, 1.2931699540004047), (4, 1.5650941139992938), (5, 1.8692157629993744), (4, 2.2692616610002005), (3, 2.477191583999229), (2, 2.68511113599925), (1, 2.861504242000592), (1, 3.1972446710005897)]",0.5656404585031297
group,38,54,post,-3,16,anticlockwise,anticlockwise,correct,0.8384175449991744,ca,1040,0,500,solo,0.9388262100001157,gs,3.0,1.563419864000025,4,"[(4, 0.0004817280005227076), (3, 1.1484723569992639), (3, 1.5643480460003047)]",0.42807802530419325
group,38,55,post,3,64,anticlockwise,clockwise,wrong,1.0968173380006192,ac,640,10,500,group,1.1545465759991203,gs,2.0,1.3547851489984168,1,"[(1, 0.0004983159997209441), (2, 0.5557119479999528), (2, 1.3557909400005883)]",0.5192417746998407
group,38,56,post,3,16,clockwise,clockwise,correct,0.6216004249999969,ca,700,0,500,solo,0.8744711130002543,sg,3.0,1.7569604000000254,6,"[(6, 0.0005056760001025395), (5, 0.8780326429987326), (4, 1.1339105009992636), (3, 1.3579620119999163), (3, 1.757887021998613)]",0.44145476292950064
group,38,57,post,-3,32,anticlockwise,anticlockwise,correct,0.7941095559999667,ac,770,10,500,solo,1.0090794950010604,gs,4.0,1.5179417279996414,5,"[(5, 0.0005134539987921016), (4, 1.1349314100007177), (4, 1.5189529240014963)]",0.5792103806773922
group,38,58,post,-3,16,anticlockwise,anticlockwise,correct,0.6651548040008493,ac,1400,-10,500,solo,1.0128961329992308,sg,3.0,1.5859372869999788,2,"[(2, 0.0005065369987278245), (3, 1.203096598999764), (3, 1.5867529639999702)]",0.4871424276415681
group,38,59,post,3,8,clockwise,clockwise,correct,0.7151055670001369,ac,550,0,500,solo,0.949492191999525,sg,3.0,1.1894259529999545,4,"[(4, 0.0004698089996963972), (3, 0.7743609459994332), (3, 1.1903866399989056)]",0.4694602046755896
group,38,60,post,3,32,clockwise,clockwise,correct,0.9391090009994514,ca,940,-10,500,solo,0.7318038749999687,sg,4.0,2.4366324469992833,4,"[(4, 0.0004755850004585227), (3, 0.5177268539991928), (2, 0.8376033599997754), (3, 1.5895220729998982), (4, 1.7975884240004234), (4, 2.437432169999738)]",0.5260326808488903
group,38,61,pre,3,64,clockwise,clockwise,correct,0.5947648639994441,ac,850,0,500,solo,1.6089462420004566,sg,5.0,2.6561758930001815,1,"[(1, 0.0004901700012851506), (2, 1.2012253209995833), (3, 1.4411771750001208), (4, 1.6811951020008564), (5, 1.9050347820011666), (5, 2.6570335020005587)]",0.41438510375806176
group,38,62,post,-3,8,anticlockwise,anticlockwise,correct,1.0169779480002035,ac,1040,0,500,solo,1.3510540819988819,gs,5.0,1.3190105160010717,4,"[(4, 0.0004728170006274013), (5, 1.000026257999707), (5, 1.3199717440002132)]",0.5978060372942956
group,38,63,post,-3,64,anticlockwise,anticlockwise,correct,1.0296358839987079,ca,590,10,500,group,1.331393377000495,gs,3.0,1.3714167300004192,2,"[(2, 0.0005135760002303869), (3, 0.7484470219987998), (3, 1.3734403669986932)]",0.5474235990422147
group,38,64,post,3,64,anticlockwise,clockwise,wrong,1.2598700369999278,ca,500,-10,500,group,1.1040988599997945,sg,4.0,1.3700016610000603,3,"[(3, 0.0005094589996588184), (4, 1.0189367719995062), (4, 1.3708471780009859)]",0.4836758254664455
group,38,65,post,-3,32,clockwise,anticlockwise,wrong,0.7608391249996203,ac,640,-10,500,group,1.4726419639991946,gs,3.0,0.9564315739989979,1,"[(1, 0.0004789809991052607), (2, 0.4615021270001307), (3, 0.669367227001203), (3, 0.9572736610007269)]",0.5348290876829703
group,38,66,pre,-3,8,anticlockwise,anticlockwise,correct,1.2068701509997481,ac,1400,0,500,solo,2.1345899309999368,gs,3.0,1.4358172989996092,6,"[(6, 0.0004728719995910069), (5, 0.6367826550012978), (4, 0.8767632700000831), (3, 1.100755763000052), (3, 1.4365861530004622)]",0.5339418347486065
group,38,67,post,3,16,clockwise,clockwise,correct,0.5994875880005566,ac,1270,10,500,solo,0.5819524399994407,gs,4.0,0.9172249549992557,3,"[(3, 0.0004824600000574719), (4, 0.4702756999995472), (4, 0.9181994809987373)]",0.5537665919058852
group,38,68,post,3,32,clockwise,clockwise,correct,1.1719604849986354,ac,550,-10,500,group,0.9391453320004075,gs,3.0,1.915946854998765,2,"[(2, 0.00047865600026852917), (1, 0.36469451499942807), (2, 0.8289072799998394), (3, 1.004719998998553), (4, 1.1807821080001304), (3, 1.6289884069992695), (3, 1.9168432709993795)]",0.5805795930280258
group,38,69,post,-3,8,clockwise,anticlockwise,wrong,1.3459208420008508,ac,1400,10,500,solo,0.9303282330001821,sg,5.0,1.6666655369990622,6,"[(6, 0.0005292400001053466), (5, 1.187575056001151), (5, 1.6674887920016772)]",0.5939406828108222
group,38,70,post,3,8,clockwise,clockwise,correct,0.5337811579993286,ac,590,-10,500,solo,1.5271388109995314,gs,2.0,1.2397893760007719,4,"[(4, 0.0005274140003166394), (3, 0.7126389730001392), (2, 0.904854083999453), (2, 1.2405600160000176)]",0.4829367287683169
group,38,71,post,-3,64,anticlockwise,anticlockwise,correct,0.8393834380003682,ca,550,10,500,group,0.7968356779983878,gs,3.0,1.2025984419997258,4,"[(4, 0.0004738650004583178), (3, 0.5476410830015084), (3, 1.2035683120011527)]",0.5836377123124667
group,38,72,post,-3,16,anticlockwise,anticlockwise,correct,1.3843522500010295,ca,550,0,500,solo,1.2885649020008714,sg,2.0,1.0984760520004784,4,"[(4, 0.0004826030017284211), (3, 0.4432752819993766), (2, 0.6833019240002614), (2, 1.099235788000442)]",0.476613450936647
group,38,73,post,3,8,anticlockwise,clockwise,wrong,0.6765272119992005,ca,1270,10,500,group,1.1205666469995776,sg,4.0,1.9454473980003968,3,"[(3, 0.0004888779985776637), (2, 0.6185619610005233), (1, 0.890492575999815), (2, 1.2905341950008733), (3, 1.482411207000041), (4, 1.6423614489995089), (4, 1.9461356140000134)]",0.49107812740719403
group,38,74,pre,3,64,anticlockwise,clockwise,wrong,0.9373414080000657,ac,700,10,500,group,1.9018993409990799,sg,5.0,2.473091386998931,2,"[(2, 0.0004869619988312479), (3, 0.6660723630011489), (4, 1.6099330710003414), (5, 2.042093575000763), (5, 2.4738035820009827)]",0.48128870030105414
group,38,75,post,-3,16,anticlockwise,anticlockwise,correct,0.7639067899999645,ca,770,10,500,solo,1.396080102000269,gs,2.0,1.0910446750003757,5,"[(5, 0.0005157760006113676), (4, 0.35583442200004356), (3, 0.531896995000352), (2, 0.7719709739994869), (2, 1.0919335319995298)]",0.5159199255799811
group,38,76,post,-3,8,anticlockwise,anticlockwise,correct,0.6402153479994013,ca,770,0,500,solo,0.5724651529999392,gs,3.0,1.6273169579999376,6,"[(6, 0.0005040149990236387), (5, 0.8122288539998408), (4, 1.0522159869997267), (3, 1.2924865459990542), (3, 1.6283697319995554)]",0.4320258920735979
group,38,77,post,-3,64,clockwise,anticlockwise,wrong,0.8786501590002445,ca,640,-10,500,group,1.1379528590005066,gs,4.0,1.4022466799997346,5,"[(5, 0.00047315099982370157), (4, 0.4113008500007709), (4, 1.403106392999689)]",0.5662075664367894
group,38,78,post,3,64,clockwise,clockwise,correct,0.6038242369995714,ca,940,0,500,solo,0.8899953569998615,sg,3.0,1.2287699099997553,2,"[(2, 0.0004869539989158511), (3, 0.909626829001354), (3, 1.2297058640015166)]",0.43378343687598764
group,38,79,post,3,16,clockwise,clockwise,correct,0.5758462639987556,ca,770,10,500,solo,0.6072916649991384,gs,2.0,1.3404686310004763,4,"[(4, 0.00047356400136777665), (3, 0.6534498999990319), (2, 0.9733311769996362), (2, 1.3414214940003149)]",0.5716176764646151
group,38,80,post,3,32,anticlockwise,clockwise,wrong,1.7131706079999276,ac,500,-10,500,group,1.2832461250000051,gs,3.0,1.4767797810000047,1,"[(1, 0.0006751600012648851), (2, 0.6458789320004144), (3, 0.917825869999433), (3, 1.4778145700001915)]",0.4029556781986501
group,38,81,post,-3,32,anticlockwise,anticlockwise,correct,1.4696896200002811,ac,700,-10,500,solo,0.7623679469998024,sg,3.0,1.5534866010002588,1,"[(1, 0.0004815989996131975), (2, 0.5943904570012819), (3, 0.8504285570015782), (3, 1.5544927310002095)]",0.5814860708593921
group,38,82,pre,3,8,clockwise,clockwise,correct,0.5851728699999512,ca,550,0,500,group,2.1509606370000256,gs,6.0,1.9109786070002883,1,"[(1, 0.0004881290005869232), (2, 0.871857607999118), (3, 1.0799297430003207), (4, 1.2560092080002505), (5, 1.4639588419995562), (6, 1.6399090489994705), (6, 1.9119084049998492)]",0.4628778343316213
group,38,83,post,-3,8,anticlockwise,anticlockwise,correct,1.3098978970010648,ac,590,10,500,solo,1.1527461549994769,gs,3.0,1.335526048000247,6,"[(6, 0.0007962180006870767), (5, 0.4565783729995019), (4, 0.7764672739995149), (3, 0.9843396090000169), (3, 1.3364700170004653)]",0.5783062496250327
group,38,84,post,-3,16,anticlockwise,anticlockwise,correct,2.326613602999714,ca,850,-10,500,solo,1.0712732249994588,sg,4.0,2.234713791000104,1,"[(1, 0.0005260510006337427), (2, 0.7796906269995816), (3, 1.01967393599989), (4, 1.25967499699982), (4, 2.235797671999535)]",0.5608576856346958
group,38,85,post,3,64,clockwise,clockwise,correct,1.7195874900007766,ac,1400,0,500,solo,0.8416763730001549,gs,3.0,1.7579388710000785,1,"[(1, 0.0004927160007355269), (2, 0.7187245260010968), (3, 0.97495261900076), (3, 1.7587526440001966)]",0.5094236978758647
group,38,86,post,-3,32,clockwise,anticlockwise,wrong,0.9096137850010564,ca,1150,10,500,solo,0.9763273089993163,gs,3.0,1.5512211540008138,4,"[(4, 0.0005083659998490475), (5, 0.5763276689995109), (4, 1.0240260979990126), (3, 1.2801611550003145), (3, 1.552101674998994)]",0.4901877192533981
group,38,87,post,3,32,clockwise,clockwise,correct,0.5338788349999959,ac,1150,0,500,solo,0.5025517800004309,gs,4.0,0.8401864829993428,3,"[(3, 0.0005080829996586544), (4, 0.5370993590004218), (4, 0.8411635539996496)]",0.5505095912641627
group,38,88,post,3,16,clockwise,clockwise,correct,0.5719819890000508,ac,590,0,500,solo,1.2422792520010262,gs,2.0,0.94246212500002,4,"[(4, 0.0005128289994900115), (3, 0.31949588899988157), (2, 0.5754807019984582), (2, 0.9433880090000457)]",0.5294663092993808
group,38,89,post,-3,64,clockwise,anticlockwise,wrong,3.841524698000285,ac,770,-10,500,group,0.9428813829999854,sg,3.0,1.2948829010001646,5,"[(5, 0.0004975809988536639), (4, 0.5119297729997925), (3, 0.9759218790004525), (3, 1.2957981889994699)]",0.4409477345983334
group,38,90,post,3,8,clockwise,clockwise,correct,0.7079154759994708,ac,850,0,500,solo,0.6539901179985463,gs,2.0,0.9699950729991542,4,"[(4, 0.0005108700006530853), (3, 0.4429751349998696), (2, 0.6829117849993054), (2, 0.9707986139983404)]",0.43023136762054914
group,38,91,post,3,64,clockwise,clockwise,correct,2.333119684999474,ca,590,-10,500,group,0.853487809001308,sg,3.0,0.9855869149996579,2,"[(2, 0.0005046360001870198), (3, 0.5065257329988526), (3, 0.9863666540004488)]",0.4107187651730252
group,38,92,post,-3,16,anticlockwise,anticlockwise,correct,0.5829648779999843,ac,590,-10,500,solo,1.6703438770000503,gs,4.0,1.1132195629998023,5,"[(5, 0.0005034250007156515), (4, 0.5220696779997525), (4, 1.1142404379988875)]",0.5367765364374351
group,38,93,post,3,8,clockwise,clockwise,correct,0.5487845589996141,ca,700,-10,500,solo,0.8215866570008075,gs,5.0,1.8344895080008428,4,"[(4, 0.0005124029994476587), (3, 0.5556567799994809), (4, 1.3234214929998416), (5, 1.5313884139995935), (5, 1.8354584369990334)]",0.45409123264004264
group,38,94,post,-3,8,anticlockwise,anticlockwise,correct,0.6135902580008405,ac,700,-10,500,group,1.1086696250004024,sg,4.0,0.9419817329999205,3,"[(3, 0.0004952720009896439), (4, 0.4790562769994722), (4, 0.9428732770011266)]",0.5197855233567608
group,38,95,post,-3,32,anticlockwise,anticlockwise,correct,1.3704676659999677,ca,590,0,500,solo,1.4665952830000606,gs,2.0,1.4217184810004255,1,"[(1, 0.0005165660004422534), (2, 0.8147512300001836), (2, 1.4227053840004373)]",0.5786671950035329
group,38,96,post,-3,64,anticlockwise,anticlockwise,correct,2.649247753999589,ca,1270,10,500,group,1.1098679320002702,sg,4.0,1.3340040700004465,2,"[(2, 0.0005193360011617187), (3, 0.7110934399988764), (4, 1.0149581549994764), (4, 1.3350928299987572)]",0.4911547080779212
group,38,97,pre,-3,32,anticlockwise,anticlockwise,correct,0.979606461000003,ca,1040,0,500,solo,1.1103905199997826,sg,5.0,1.058170352000161,3,"[(3, 0.0004960040005244082), (4, 0.5472754880011053), (5, 0.7230630820013175), (5, 1.0589966700008517)]",0.41981016977059443
group,38,98,post,3,16,clockwise,clockwise,correct,0.5727431479990628,ac,850,10,500,solo,1.0684490530002222,sg,3.0,1.2556551530014985,2,"[(2, 0.0005333749995770631), (3, 0.7446668709999358), (3, 1.2566877869994642)]",0.5285070880106735
group,38,99,post,3,32,clockwise,clockwise,correct,0.7166246950000641,ac,1040,10,500,group,1.3985229359986988,sg,4.0,2.100026545998844,6,"[(6, 0.0004743820009025512), (5, 1.4448400960009167), (4, 1.7489885180002602), (4, 2.100913465999838)]",0.46330681418240693
group,38,100,post,3,32,anticlockwise,clockwise,wrong,0.5823194580007112,ca,590,0,500,solo,1.3334986280005978,gs,2.0,0.8069423850010935,3,"[(3, 0.0005136159998073708), (2, 0.43967201099985687), (2, 0.8076433429996541)]",0.5385430646442869
group,38,101,post,-3,16,anticlockwise,anticlockwise,correct,0.9893181629995524,ca,1150,10,500,group,2.524335083000551,sg,4.0,1.1646172250002564,6,"[(6, 0.0005015560000174446), (5, 0.49370949899821426), (4, 0.7657180179994612), (4, 1.1655271929994342)]",0.5011991641897976
group,38,102,post,-3,8,anticlockwise,anticlockwise,correct,0.6118745759995363,ac,850,-10,500,solo,0.9776376860008895,gs,3.0,1.0891866969996045,6,"[(6, 0.0005175429996597813), (5, 0.32207610399927944), (4, 0.5459308930003317), (3, 0.7701133789996675), (3, 1.0901125559994398)]",0.5087526549242648
group,38,103,post,-3,64,clockwise,anticlockwise,wrong,2.122338069999387,ca,940,0,500,solo,0.9725489510001353,sg,3.0,1.2758977390003565,5,"[(5, 0.0004822270002478035), (4, 0.5090830489989457), (3, 0.9247810609995213), (3, 1.27670005499931)]",0.5260573881749323
group,38,104,post,-3,32,clockwise,anticlockwise,wrong,4.704433082000833,ac,500,0,500,group,1.387572640000144,sg,2.0,0.7134233769993443,4,"[(4, 0.00048298999899998307), (3, 0.20251907100100652), (2, 0.42634691200146335), (2, 0.7145120149998547)]",0.4490439646233142
group,38,105,post,3,64,clockwise,clockwise,correct,0.7574772560001293,ca,550,0,500,solo,1.0851942860008421,sg,3.0,1.4472716830005083,4,"[(4, 0.00048534999950788915), (3, 0.3762954060002812), (2, 0.5841885590016318), (3, 1.1281842719999986), (3, 1.448183163000067)]",0.46349631616525283
group,38,106,post,3,16,clockwise,clockwise,correct,0.8817829849995178,ac,1040,0,500,solo,0.7881961269995372,gs,2.0,1.0037561070002994,3,"[(3, 0.0004838540007767733), (2, 0.6367443340004684), (2, 1.0044577400003618)]",0.5630223315085912
group,38,107,post,3,8,clockwise,clockwise,correct,0.5738866350002354,ac,940,10,500,solo,0.5249526469997363,gs,4.0,1.294271373999436,1,"[(1, 0.0004883269994024886), (2, 0.39933224900050845), (3, 0.5752162949993362), (4, 0.7031052469992574), (4, 1.295330954999372)]",0.4011473075738328
group,38,108,pre,-3,64,anticlockwise,anticlockwise,correct,1.6023009119999188,ca,590,10,500,group,1.5799877219997143,sg,4.0,1.3201142210000398,5,"[(5, 0.0004823479994229274), (4, 0.6971712710001157), (4, 1.320970873999613)]",0.5180282295730207
