task,id,trial,order,ori_mean,ori_var,judge,answer,result,judge_rt,line_pos,payoff_solo,payoff_jitter,payoff_group,choice,choice_rt,option_pos,rating,rating_rt,rating_init,rating_history,iti
group,47,1,post,-3,8,anticlockwise,anticlockwise,correct,0.9024520140010281,ac,1040,-10,500,solo,1.0475768800006335,gs,4.0,2.8038381740007026,2,"[(2, 0.00034646100175450556), (3, 1.3328516419987864), (4, 1.5407686659982573), (4, 2.8045055649999995)]",0.40982309232545694
group,47,2,post,-3,16,clockwise,anticlockwise,wrong,0.7123159479997412,ca,550,-10,500,group,1.1218633270000282,sg,2.0,3.322759324000799,2,"[(2, 0.0005152310004632454), (2, 3.3240186599996377)]",0.5416039413337426
group,47,3,post,3,64,anticlockwise,clockwise,wrong,0.8932360620001418,ac,1040,10,500,solo,1.0396427219984616,gs,1.0,1.371726243000012,2,"[(2, 0.0004936519999318989), (1, 1.1326813229989057), (1, 1.372541430999263)]",0.4715215752405114
group,47,4,post,3,8,clockwise,clockwise,correct,1.836199196999587,ac,550,-10,500,solo,1.0174000440001691,gs,6.0,2.6294093189990235,1,"[(1, 0.0005033249999542022), (2, 1.2064232869997795), (3, 1.4623575810001057), (4, 1.6863310340013413), (5, 1.9903171389996714), (6, 2.198114410000926), (6, 2.6303287299997464)]",0.4773820569086756
group,47,5,post,-3,64,clockwise,anticlockwise,wrong,0.836671438999474,ac,590,-10,500,group,0.9859622710009717,gs,1.0,1.7039193849996082,2,"[(2, 0.0004943019994243514), (1, 1.3368327369989856), (1, 1.704756554998312)]",0.45895733049288745
group,47,6,post,3,16,clockwise,clockwise,correct,0.6661650460009696,ca,1040,-10,500,solo,0.6945912279988988,sg,3.0,2.630600192000202,3,"[(3, 0.000512063999849488), (3, 2.631432564001443)]",0.4731228110096651
group,47,7,post,3,32,anticlockwise,clockwise,wrong,1.0240444330011087,ca,770,0,500,group,1.741977563000546,sg,3.0,2.974347759000011,1,"[(1, 0.0004807479999726638), (2, 1.2314556789988274), (3, 1.7112453559984715), (3, 2.9753201650000847)]",0.5958217456602819
group,47,8,pre,-3,64,clockwise,anticlockwise,wrong,0.873249754000426,ac,770,10,500,solo,2.732103045000258,sg,2.0,2.219336344000112,3,"[(3, 0.0008227219987020362), (2, 2.012352658000964), (2, 2.22013630299989)]",0.42641807276176585
group,47,9,post,-3,32,clockwise,anticlockwise,wrong,0.764538232000632,ac,550,0,500,solo,1.3010211189994152,gs,2.0,1.4313345240007038,4,"[(4, 0.0004906419999315403), (3, 0.6642422010008886), (2, 1.1121173629999248), (2, 1.4322066419990733)]",0.4225053950943918
group,47,10,post,3,64,anticlockwise,clockwise,wrong,1.5877352080005949,ca,850,-10,500,solo,1.1156072869998752,sg,1.0,1.0767789889996493,4,"[(4, 0.0005050720010331133), (3, 0.39004755200039654), (2, 0.5981197519995476), (1, 0.8059810720005771), (1, 1.0781021700004203)]",0.5095066315884184
group,47,11,pre,3,64,clockwise,clockwise,correct,0.9529559450002125,ca,590,10,500,solo,8.520562965000863,gs,2.0,1.9126593330001924,2,"[(2, 0.000488785000925418), (2, 1.9136483679994853)]",0.5693105295647817
group,47,12,post,3,32,clockwise,clockwise,correct,0.8317442259995005,ac,640,0,500,solo,0.6921466940002574,sg,4.0,1.5508759450003708,5,"[(5, 0.000484898999275174), (4, 1.0720428929998889), (4, 1.551769625999441)]",0.5614813561514247
group,47,13,post,-3,32,anticlockwise,anticlockwise,correct,1.2873110809996433,ca,1040,-10,500,solo,0.7144474480010103,sg,3.0,2.0677973889996792,6,"[(6, 0.0004955280001013307), (5, 1.3968169069994474), (4, 1.668720501998905), (3, 1.8447117569994589), (3, 2.068681896000271)]",0.5135623745709197
group,47,14,post,3,16,clockwise,clockwise,correct,1.2570701399999962,ac,700,10,500,solo,0.861795004000669,sg,5.0,0.8013186929983931,5,"[(5, 0.0004981139991286909), (5, 0.8023734569997032)]",0.4579148958622426
group,47,15,post,-3,8,anticlockwise,anticlockwise,correct,1.075384973000837,ca,1400,-10,500,solo,0.6222123309999006,sg,6.0,1.195381442001235,4,"[(4, 0.0004927330010104924), (5, 0.556364112000665), (6, 0.8922908849999658), (6, 1.196338525000101)]",0.589552481527803
group,47,16,post,-3,64,anticlockwise,anticlockwise,correct,1.092549571998461,ca,940,-10,500,solo,1.0559568259996013,gs,1.0,1.4834632969996164,6,"[(6, 0.00048340300054405816), (5, 0.3802423159995669), (4, 0.6043582790007349), (3, 0.8123835940004938), (2, 1.0044967320009164), (1, 1.2122688210001797), (1, 1.4843941920007637)]",0.4374893436560849
group,47,17,post,-3,16,anticlockwise,anticlockwise,correct,1.2090585700007068,ca,500,-10,500,solo,2.095301051000206,sg,5.0,3.7136435770007665,6,"[(6, 0.0004888399998890236), (5, 1.5546126749995892), (4, 1.8585720539995236), (3, 2.130401661999713), (2, 2.4667056019989104), (3, 2.7707054579987016), (4, 3.010641510998539), (5, 3.266588939999565), (5, 3.7144564159989386)]",0.42447423672713647
group,47,18,post,3,8,clockwise,clockwise,correct,0.9183708090004075,ac,1150,0,500,solo,0.7438511990003462,gs,6.0,1.6002447289993142,2,"[(2, 0.0004902410000795498), (3, 0.48135162200014747), (4, 0.7692348929995205), (5, 0.9772541940001247), (6, 1.2491667619997315), (6, 1.6011155389987834)]",0.4562936535452481
group,47,19,post,-3,16,anticlockwise,anticlockwise,correct,0.7286373219994857,ca,770,-10,500,solo,0.6574547029995301,gs,3.0,1.0532141429994226,3,"[(3, 0.0004794510005012853), (3, 1.0540698839995457)]",0.45600891023060575
group,47,20,post,3,8,clockwise,clockwise,correct,0.6997539690000849,ac,940,-10,500,solo,0.7095542779989046,sg,4.0,1.8552942000005714,3,"[(3, 0.0005124569997860817), (4, 1.5363210280011117), (4, 1.8561163260001194)]",0.45538004145610217
group,47,21,pre,3,8,clockwise,clockwise,correct,4.600063646999843,ac,1400,0,500,solo,1.0663561370001844,sg,2.0,1.3667575350009429,2,"[(2, 0.00048996899931808), (2, 1.3676790049994452)]",0.4327302691104709
group,47,22,post,-3,32,anticlockwise,anticlockwise,correct,1.3320020379997004,ca,640,-10,500,solo,0.7577738800009683,sg,2.0,1.0050270800002181,4,"[(4, 0.00048154700016311835), (3, 0.33401053300076455), (2, 0.5580199039995932), (2, 1.0059544800005824)]",0.5715974936852419
group,47,23,post,3,16,clockwise,clockwise,correct,0.7190720720009267,ac,770,0,500,solo,0.6660669880002388,gs,4.0,1.0294636329999776,4,"[(4, 0.0005066579997219378), (5, 0.29462222899928747), (4, 0.8543631599986838), (4, 1.0302657789998193)]",0.40155219430819933
group,47,24,post,3,32,anticlockwise,clockwise,wrong,0.6721812220002903,ac,940,0,500,solo,2.1394123600002786,gs,2.0,1.787951536998662,6,"[(6, 0.0005205380002735183), (5, 0.876869337998869), (4, 1.164857719999418), (3, 1.4048465659998328), (2, 1.6128241089991207), (2, 1.7889130619987554)]",0.5537945794910183
group,47,25,post,3,64,anticlockwise,clockwise,wrong,0.7498252860004868,ac,1400,10,500,group,0.918140798999957,gs,1.0,1.3505377860001317,3,"[(3, 0.0005159169995749835), (2, 0.9195942299993476), (1, 1.1593616329992074), (1, 1.351553796999724)]",0.43330327733088275
group,47,26,post,-3,8,anticlockwise,anticlockwise,correct,0.6783255339996686,ac,550,10,500,solo,2.3071654670002317,gs,5.0,1.1483441999989736,5,"[(5, 0.000499882000440266), (5, 1.1494030079993536)]",0.520989422894884
group,47,27,post,-3,64,clockwise,anticlockwise,wrong,1.9844632299991645,ac,850,0,500,solo,3.6066862709994894,sg,1.0,2.1246797980002157,5,"[(5, 0.0004850980003539007), (4, 0.8298287489997165), (3, 1.0535099750013615), (2, 1.2615553209998325), (1, 1.7736261780009954), (1, 2.1256475090012827)]",0.5952001512117853
group,47,28,post,-3,8,anticlockwise,anticlockwise,correct,0.7385449650009832,ac,770,10,500,solo,0.6508734870003536,sg,5.0,1.3030342430010933,3,"[(3, 0.0005006310002499959), (4, 0.4400825419998), (5, 0.6640137519989366), (5, 1.3040782360003504)]",0.4017145646516157
group,47,29,post,3,64,anticlockwise,clockwise,wrong,0.8900376879992109,ac,1150,0,500,solo,1.501794775000235,sg,1.0,0.9347123610004928,2,"[(2, 0.000496714001201326), (1, 0.48790423500031466), (1, 0.9357220799993229)]",0.47323730042921675
group,47,30,post,3,8,clockwise,clockwise,correct,0.6793464490001497,ac,1040,0,500,solo,0.6432480729999952,gs,5.0,1.5675754829990183,4,"[(4, 0.0005274920004012529), (5, 0.4165633990014612), (5, 1.5684899389998463)]",0.4914437422650177
group,47,31,post,3,16,clockwise,clockwise,correct,0.6465713110010256,ca,550,0,500,solo,2.01907149300132,sg,4.0,0.8718559869994351,2,"[(2, 0.0004937589983455837), (3, 0.36097357400103647), (4, 0.6007517580001149), (4, 0.8727522990011494)]",0.5340113747612094
group,47,32,post,-3,16,anticlockwise,anticlockwise,correct,1.2093101679984102,ca,1400,-10,500,solo,0.6867549899998266,sg,3.0,1.481053941999562,2,"[(2, 0.0005238630001258571), (3, 1.177927931999875), (3, 1.481986989001598)]",0.5683568088675832
group,47,33,post,3,32,clockwise,clockwise,correct,0.8050310290000198,ac,550,0,500,solo,1.6110293829988223,sg,2.0,1.43991331199868,5,"[(5, 0.0005216940007812809), (4, 0.8809382010003901), (3, 1.1209266349997051), (2, 1.3127317409998795), (2, 1.4407607490011287)]",0.47572719338370884
group,47,34,post,-3,64,anticlockwise,anticlockwise,correct,0.923584738999125,ca,500,10,500,solo,1.9649375619992497,sg,3.0,1.0601501269993605,4,"[(4, 0.0004957490000379039), (3, 0.7411684200014861), (3, 1.0610467310016247)]",0.5457134889560799
group,47,35,pre,-3,8,anticlockwise,anticlockwise,correct,0.6569768700010172,ac,700,0,500,solo,1.912563437001154,sg,4.0,1.6275789709998207,3,"[(3, 0.0005091420007374836), (4, 1.2447421420001774), (4, 1.628539011000612)]",0.5564090577781893
group,47,36,post,-3,32,anticlockwise,anticlockwise,correct,1.330909641999824,ac,590,0,500,solo,1.123707620001369,sg,1.0,1.3413600730000326,1,"[(1, 0.0004868890009674942), (1, 1.342444706000606)]",0.4821783882406142
group,47,37,post,-3,32,anticlockwise,anticlockwise,correct,0.9755059359995357,ac,500,-10,500,group,3.694776838998223,gs,2.0,1.2977291349998268,5,"[(5, 0.0004909899998892797), (4, 0.5627269749984407), (3, 0.834550229999877), (2, 1.0585655769991718), (2, 1.2985671520000324)]",0.4545815464563057
group,47,38,post,-3,64,anticlockwise,anticlockwise,correct,0.7247400090000156,ac,640,0,500,group,1.23076173499976,sg,1.0,1.1553498600005696,4,"[(4, 0.0005372659998101881), (3, 0.3884496589998889), (2, 0.6282286490004481), (1, 0.8363030410000647), (1, 1.1560810350001702)]",0.48341424451103443
group,47,39,post,-3,16,anticlockwise,anticlockwise,correct,0.824971292000555,ca,1150,-10,500,solo,0.6222510799998417,sg,6.0,1.3555487320008979,6,"[(6, 0.0004890780001005623), (6, 1.35660447599912)]",0.5872687882200063
group,47,40,post,-3,8,anticlockwise,anticlockwise,correct,1.1472548340007052,ac,940,10,500,solo,0.9150523440002871,sg,4.0,1.779797627001244,3,"[(3, 0.0004917890000797343), (4, 0.5328279559998919), (4, 1.7807729659998586)]",0.491971366690544
group,47,41,post,3,64,anticlockwise,clockwise,wrong,0.8190800490010588,ac,700,0,500,group,1.0812885940013075,gs,1.0,2.0028816430003644,6,"[(6, 0.000492122000650852), (5, 0.3239199700001336), (4, 0.5800311389994022), (3, 0.7879153729991231), (2, 1.011920408000151), (1, 1.3799012409999705), (1, 2.003811009999481)]",0.5174828402854585
group,47,42,post,3,16,clockwise,clockwise,correct,1.6918566940003075,ac,590,-10,500,solo,1.0544209999989107,gs,3.0,2.5695107320007082,5,"[(5, 0.0004928210000798572), (4, 0.5065248579994659), (3, 0.8105435819998092), (3, 2.57038825500058)]",0.4609776309841581
group,47,43,post,3,32,clockwise,clockwise,correct,4.459155885000655,ca,1150,10,500,solo,1.103198662000068,gs,3.0,1.192764701001579,2,"[(2, 0.0005160710006748559), (3, 0.8257692879997194), (3, 1.1936746069986839)]",0.4768229778139931
group,47,44,post,3,8,clockwise,clockwise,correct,0.7056881830012571,ac,1400,0,500,solo,0.7959654609985591,gs,4.0,2.76941210699988,1,"[(1, 0.0004999850007152418), (2, 0.40257961899988004), (3, 0.6265969319993019), (4, 0.8185300269997242), (5, 1.0265961879995302), (4, 2.3387433989992132), (4, 2.7705689889990026)]",0.44339869179663943
group,47,45,pre,3,32,clockwise,clockwise,correct,1.5671599519992014,ca,850,10,500,solo,1.0926854099998309,sg,4.0,1.5264206560004823,6,"[(6, 0.0005022789991926402), (5, 0.7752243259983516), (4, 1.1753909649996785), (4, 1.5273122769995098)]",0.5029900305274249
group,47,46,post,-3,64,anticlockwise,anticlockwise,correct,0.7996607889999723,ac,1270,10,500,solo,1.20692442499967,gs,1.0,1.212410969999837,5,"[(5, 0.0005054709999967599), (4, 0.25344645499899343), (3, 0.49317105199952493), (2, 0.7493435819997103), (1, 0.9573005619986361), (1, 1.2132942359985464)]",0.5060014766179302
group,47,47,post,3,64,anticlockwise,clockwise,wrong,0.6244488680003997,ca,640,-10,500,solo,1.1330157360007433,sg,2.0,1.0300528749994555,1,"[(1, 0.0005900309988646768), (1, 0.31092665899996064), (2, 0.6949607259994082), (2, 1.0308350729992526)]",0.5544266876368357
group,47,48,post,-3,8,anticlockwise,anticlockwise,correct,0.8492648289993667,ca,640,10,500,solo,0.6926184380008635,sg,5.0,0.7838181200004328,5,"[(5, 0.0004935689994454151), (5, 0.7844869999989896)]",0.5507234583228456
group,47,49,post,3,8,clockwise,clockwise,correct,1.2860117999989598,ac,640,0,500,solo,0.8571139329997095,gs,2.0,1.180513551000331,3,"[(3, 0.00047754499973962083), (2, 0.9735950720005349), (2, 1.1814613940005074)]",0.5032141531394809
group,47,50,post,-3,16,anticlockwise,anticlockwise,correct,0.9764329259996885,ca,1270,10,500,solo,0.6396023340003012,sg,4.0,3.003607643999203,5,"[(5, 0.00048356300067098346), (4, 2.7326570539989916), (4, 3.0043980769987684)]",0.556466477129957
group,47,51,post,-3,32,anticlockwise,anticlockwise,correct,2.3250803589999123,ca,1400,-10,500,solo,0.5268629269994562,gs,2.0,1.5987441329998546,1,"[(1, 0.0005105429991090205), (2, 1.1996987790007552), (2, 1.5996430969989888)]",0.4777749279200678
group,47,52,pre,-3,16,anticlockwise,anticlockwise,correct,0.8650447959989833,ac,1040,0,500,solo,1.8592050779989222,gs,3.0,1.652742774998842,2,"[(2, 0.0005119590005051577), (3, 1.4456214630008617), (3, 1.6535211240006902)]",0.4613885682444958
group,47,53,post,3,16,clockwise,clockwise,correct,0.6655759260011109,ac,1400,10,500,solo,0.8213120269992942,gs,3.0,1.1301348889992369,6,"[(6, 0.0005454410002130317), (5, 0.4272034590012481), (4, 0.6670384200006083), (3, 0.8910272840003017), (3, 1.1310230660001253)]",0.4903779174949688
group,47,54,post,3,32,clockwise,clockwise,correct,1.4479167039989989,ac,590,10,500,solo,0.9966722619992652,gs,3.0,0.9620877929992275,5,"[(5, 0.0004941509996569948), (4, 0.37092454800040287), (3, 0.6269989539996459), (3, 0.9630185969999729)]",0.40147317070727295
group,47,55,post,-3,64,anticlockwise,anticlockwise,correct,0.6195187319990509,ac,700,0,500,solo,0.6334001750001335,sg,2.0,1.6065699089995178,3,"[(3, 0.0004977030002919491), (2, 1.3036153930006549), (2, 1.6075999349995982)]",0.5139567043182259
group,47,56,post,-3,32,clockwise,anticlockwise,wrong,1.659763550000207,ca,700,0,500,solo,0.7367014450010174,sg,1.0,0.5682950209993578,1,"[(1, 0.0004879970001638867), (1, 0.5692024439995294)]",0.5212719474666558
group,47,57,pre,3,32,clockwise,clockwise,correct,0.8074688289998448,ca,640,-10,500,solo,2.0675353839997115,sg,4.0,1.468504746999315,3,"[(3, 0.0004988210002920823), (4, 1.1174558929997147), (4, 1.4694380959990667)]",0.502581214881571
group,47,58,post,3,64,clockwise,clockwise,correct,0.9732739400005812,ca,550,10,500,solo,0.9244774899998447,gs,2.0,1.1009132889994362,1,"[(1, 0.000483085999803734), (2, 0.445898236001085), (2, 1.1017970120010432)]",0.40151399571241103
group,47,59,post,3,32,clockwise,clockwise,correct,0.7628894010013028,ac,1270,10,500,solo,0.45063538199974573,gs,2.0,1.2549998539998342,3,"[(3, 0.0004883620003965916), (2, 0.7279434240008413), (2, 1.25574290700024)]",0.41421845461798434
group,47,60,post,-3,16,anticlockwise,anticlockwise,correct,0.9857162239986792,ca,1040,-10,500,solo,1.0005715280003642,gs,4.0,1.4627356139990297,6,"[(6, 0.00048755399984656833), (5, 0.423730466998677), (4, 0.6316160499991383), (4, 1.4637299379992328)]",0.5429467410760057
group,47,61,post,-3,8,anticlockwise,anticlockwise,correct,0.7988539870002569,ac,850,0,500,solo,1.3012063940004737,sg,5.0,1.847386286000983,1,"[(1, 0.0005061039992142469), (2, 0.808514386000752), (3, 1.1122711980005988), (4, 1.368306002999816), (5, 1.5604680169999483), (5, 1.8483086630003527)]",0.5978691852909129
group,47,62,post,3,16,clockwise,clockwise,correct,0.7101635280014307,ac,640,10,500,solo,0.6092279639997287,gs,3.0,1.4863005120005255,4,"[(4, 0.00047913600064930506), (3, 1.279434564999974), (3, 1.487161057000776)]",0.4406269179666251
group,47,63,post,3,8,clockwise,clockwise,correct,1.303882091999185,ca,700,10,500,solo,0.6340643139992608,sg,4.0,1.365981599999941,2,"[(2, 0.00048583399984636344), (3, 0.8710628459994041), (4, 1.1429791109985672), (4, 1.3668044850001024)]",0.5506752143803257
group,47,64,post,3,64,clockwise,clockwise,correct,1.2245529380015796,ca,770,10,500,solo,0.5103005450000637,sg,2.0,1.1673179999997956,4,"[(4, 0.00048188700020546094), (3, 0.7042582160011079), (2, 0.976335459999973), (2, 1.1681702300011239)]",0.45398849602412783
group,47,65,pre,-3,64,anticlockwise,anticlockwise,correct,1.9094038479997835,ac,500,0,500,solo,1.5189437239987456,gs,2.0,1.3588576090005517,5,"[(5, 0.0004914199998893309), (4, 0.7357683760001237), (3, 0.9758723029990506), (2, 1.1678630449987395), (2, 1.359770615999878)]",0.5832738039956906
group,47,66,post,-3,32,anticlockwise,anticlockwise,correct,0.787142428000152,ac,1150,0,500,solo,0.6660502449994965,gs,6.0,1.2214074069997878,3,"[(3, 0.0005132149999553803), (4, 0.5503567029991245), (5, 0.8064066159986396), (6, 0.9981704619985976), (6, 1.222225488998447)]",0.40239631308209195
group,47,67,post,-3,8,anticlockwise,anticlockwise,correct,1.4026140919995669,ca,1150,-10,500,solo,0.4730409299991152,gs,5.0,0.7157332070000848,4,"[(4, 0.0004930809991492424), (5, 0.540881189999709), (5, 0.7165394089988695)]",0.5106434843374896
group,47,68,post,3,32,clockwise,clockwise,correct,0.7566068569994968,ac,850,0,500,solo,0.5886526230005984,gs,4.0,1.0670503950004786,1,"[(1, 0.0005035520007368177), (2, 0.3800004299991997), (3, 0.5879995970008167), (4, 0.780018301000382), (4, 1.0679158120001375)]",0.5373157840299225
group,47,69,post,-3,64,anticlockwise,anticlockwise,correct,0.787697539999499,ac,1040,-10,500,solo,0.9879144040005485,gs,3.0,1.177972221001255,1,"[(1, 0.0005003759997634916), (2, 0.5390404310001031), (3, 0.8109931939998205), (3, 1.1787453739998455)]",0.5448487327268492
group,47,70,post,3,16,clockwise,clockwise,correct,0.7720274089988379,ac,1150,0,500,solo,0.4594560969999293,gs,4.0,0.8797781800003577,5,"[(5, 0.0004996259995095897), (4, 0.5447515969990491), (4, 0.8805406859992218)]",0.4445009162350031
group,47,71,post,3,8,clockwise,clockwise,correct,0.7188553979995049,ac,500,-10,500,solo,2.025152652999168,sg,2.0,1.0538947690001805,5,"[(5, 0.0004831180012843106), (4, 0.382872023001255), (3, 0.6067233530011436), (2, 0.8147586400009459), (2, 1.0545962690011947)]",0.5647238494817611
group,47,72,post,-3,16,anticlockwise,anticlockwise,correct,0.7805808260000049,ac,640,-10,500,solo,0.5804809239998576,sg,2.0,0.5947121109984437,2,"[(2, 0.00048350199904234614), (2, 0.5956469979992107)]",0.43090978395320134
group,47,73,post,-3,64,anticlockwise,anticlockwise,correct,0.7839509200002794,ca,1400,0,500,solo,0.5199905419995048,gs,1.0,0.6329437639997195,2,"[(2, 0.0005185859990888275), (1, 0.47376616499968804), (1, 0.6337779940004111)]",0.5540332166361919
group,47,74,post,3,8,clockwise,clockwise,correct,0.8706902350004384,ca,1270,0,500,solo,0.5536057769986655,gs,4.0,4.153765482000381,1,"[(1, 0.0005116800002724631), (2, 0.47473602299942286), (3, 0.7307795990000159), (4, 1.018809233999491), (4, 4.154868517000068)]",0.49065782847646494
group,47,75,post,-3,8,anticlockwise,anticlockwise,correct,0.6321247340001719,ac,1270,10,500,solo,0.5981366489995708,sg,4.0,2.7075154080012,3,"[(3, 0.0005242019997240277), (4, 1.3485461220006982), (5, 1.8763776569994661), (4, 2.516326390999893), (4, 2.708283816000403)]",0.5616861941075961
group,47,76,post,-3,16,anticlockwise,anticlockwise,correct,0.7182137820000207,ac,590,10,500,solo,1.0482154879991867,gs,4.0,1.8448057250006968,1,"[(1, 0.0005082099996798206), (2, 0.6775874699997075), (3, 0.9816318030007096), (4, 1.3016364659997635), (4, 1.8454998460001661)]",0.5013658637236272
group,47,77,post,3,32,clockwise,clockwise,correct,0.8465288940005848,ca,700,10,500,solo,0.48258115500175336,sg,2.0,1.6536758389993338,1,"[(1, 0.00048710699957155157), (2, 0.5985593080004037), (2, 1.6543928689989116)]",0.5783083019699844
group,47,78,post,-3,32,anticlockwise,anticlockwise,correct,0.8698539829983929,ac,940,10,500,solo,1.017871643000035,gs,2.0,0.5512635159993806,3,"[(3, 0.0005060770017735194), (2, 0.29606157899979735), (2, 0.5521741329994256)]",0.5895629278248883
group,47,79,post,3,64,clockwise,clockwise,correct,0.6654003580006247,ac,940,10,500,solo,0.5013592729992524,gs,2.0,0.8391427089991339,4,"[(4, 0.0006110350004746579), (3, 0.42394655399948533), (2, 0.6640666889998101), (2, 0.8399062160005997)]",0.44892792336220283
group,47,80,post,3,16,clockwise,clockwise,correct,0.6180686500010779,ac,850,-10,500,solo,0.6155631310011813,gs,5.0,1.188294143999883,1,"[(1, 0.0005254690004221629), (2, 0.2931838730000891), (3, 0.5331019029999879), (4, 0.7410788130000583), (5, 0.9491244370001368), (5, 1.1891020630009734)]",0.5784195003347186
group,47,81,pre,3,32,clockwise,clockwise,correct,0.7032229779997579,ac,1150,10,500,solo,0.8078737699997873,gs,4.0,1.7207242990007217,1,"[(1, 0.000526075000379933), (2, 0.8736520830007066), (3, 1.1134671110012277), (4, 1.353652501000397), (4, 1.7217231940012425)]",0.46427407879543275
group,47,82,post,-3,16,anticlockwise,anticlockwise,correct,1.6621116449987312,ca,940,0,500,solo,0.9296209849999286,gs,3.0,1.570225274999757,3,"[(3, 0.0005147430001670728), (3, 1.5712090990000434)]",0.4402485201568424
group,47,83,post,-3,32,clockwise,anticlockwise,wrong,1.8950866590002988,ac,770,10,500,solo,0.5133377450001717,gs,2.0,0.9624250650012982,5,"[(5, 0.0005139839995536022), (4, 0.3394004860001587), (3, 0.5633107630001177), (2, 0.7713729229999444), (2, 0.9632384799988358)]",0.5925731691306882
group,47,84,post,3,16,clockwise,clockwise,correct,0.5171265820008557,ac,1270,10,500,solo,0.5345396229986363,gs,5.0,0.9036334880001959,6,"[(6, 0.0005327569997461978), (6, 0.24846075500136067), (5, 0.696472238001661), (5, 0.9043176660015888)]",0.46272870423933454
group,47,85,post,3,8,clockwise,clockwise,correct,0.8574781480001548,ca,770,0,500,solo,0.5894396519997827,sg,5.0,0.8113118389992451,6,"[(6, 0.000517153999680886), (5, 0.4440369530002499), (5, 0.8121095509995939)]",0.5051199713437843
group,47,86,post,-3,64,anticlockwise,anticlockwise,correct,0.8644069800011493,ca,770,-10,500,solo,0.6288464360004582,sg,3.0,1.6814535839985183,6,"[(6, 0.0005537589986488456), (5, 0.4823150299998815), (4, 0.770383673001561), (3, 0.9942969029998494), (3, 1.6824558880016411)]",0.5244310128570282
group,47,87,post,-3,8,anticlockwise,anticlockwise,correct,0.8346888720006973,ca,590,-10,500,solo,0.7604515029997856,sg,5.0,0.912325317000068,3,"[(3, 0.00050333799845248), (4, 0.4013409950002824), (5, 0.6572481820003304), (5, 0.9132028139993054)]",0.5537591823907877
group,47,88,post,3,32,clockwise,clockwise,correct,0.664995089000513,ac,1400,-10,500,solo,0.6932971959995484,sg,3.0,2.1442836730002455,3,"[(3, 0.00047361699944303837), (3, 2.1451094089989056)]",0.581882539454095
group,47,89,post,3,64,clockwise,clockwise,correct,1.1325905609992333,ac,1270,-10,500,solo,0.5337396040013118,gs,2.0,0.966445203001058,3,"[(3, 0.0005310449996613897), (2, 0.4556371749986283), (2, 0.9673233389985398)]",0.5979393815846885
group,47,90,pre,-3,8,anticlockwise,anticlockwise,correct,0.9717180930001632,ca,1270,-10,500,solo,0.9908362530004524,gs,6.0,1.2106290379997517,6,"[(6, 0.0005573469989030855), (6, 1.211553080000158)]",0.5507041648781169
group,47,91,post,3,16,clockwise,clockwise,correct,1.122338994000529,ca,500,10,500,solo,1.3241491110002244,sg,4.0,2.3167040520002047,1,"[(1, 0.00048381399938079994), (2, 1.4537296130001778), (3, 1.7096349130006274), (4, 1.949641799001256), (4, 2.317599482999867)]",0.45566960075123075
group,47,92,post,3,32,clockwise,clockwise,correct,0.6913561609999306,ac,1040,-10,500,solo,0.5261254449997068,sg,5.0,1.0871603479990881,5,"[(5, 0.0005208410002524033), (5, 1.0880633180004224)]",0.5792568569613655
group,47,93,pre,-3,16,anticlockwise,anticlockwise,correct,0.9390371659992525,ac,550,-10,500,solo,1.4581601049994788,gs,4.0,2.26701380600025,6,"[(6, 0.0005236680008238181), (5, 1.756122687998868), (4, 2.0279763259986794), (4, 2.2679714649984817)]",0.5811911077623112
group,47,94,post,-3,8,anticlockwise,anticlockwise,correct,0.6990080210016458,ac,700,0,500,solo,1.5570926009986579,sg,4.0,1.7717842860001838,3,"[(3, 0.0005126579999341629), (4, 1.5648167150011432), (4, 1.7728006390007067)]",0.41111533369760667
group,47,95,post,-3,32,clockwise,anticlockwise,wrong,0.6487328349994641,ac,1270,10,500,solo,0.6286117740000918,gs,1.0,1.0091936669996358,3,"[(3, 0.0004884690006292658), (2, 0.51418985500095), (1, 0.8020480030008912), (1, 1.0100646450009663)]",0.5593036752857762
group,47,96,post,-3,64,clockwise,anticlockwise,wrong,0.6885634459995345,ac,1150,0,500,solo,0.8272096840009908,sg,1.0,1.0236259329994937,1,"[(1, 0.0005071989999123616), (2, 0.3044368699993356), (1, 0.8164776319990779), (1, 1.0243026099997223)]",0.44655992768295244
group,47,97,post,3,64,clockwise,clockwise,correct,0.5748789209992538,ac,500,-10,500,solo,0.5250988690004306,sg,1.0,1.4057279589997052,4,"[(4, 0.0004858150005020434), (3, 0.6865957249992789), (2, 0.9425750499995047), (1, 1.1667161109999142), (1, 1.4064867139986745)]",0.46124766373000775
group,47,98,post,-3,16,anticlockwise,anticlockwise,correct,0.7644649499998195,ac,850,0,500,solo,0.981718301998626,gs,4.0,1.5237757790000614,5,"[(5, 0.000498298000820796), (4, 0.948625009999887), (4, 1.5246451999992132)]",0.4913619471717627
group,47,99,post,3,8,clockwise,clockwise,correct,0.7019580910000514,ac,850,10,500,solo,0.536194672999045,gs,5.0,0.5357939450004778,5,"[(5, 0.0005036120001022937), (5, 0.536547421999785)]",0.4877400117900244
group,47,100,post,-3,64,clockwise,anticlockwise,wrong,0.7768273879992194,ac,550,0,500,solo,1.5679148449999047,sg,2.0,1.7683212400006596,5,"[(5, 0.00048111700016306713), (4, 0.36150243100018997), (3, 0.537203154000963), (2, 0.7453672240008018), (1, 1.1934331740012567), (2, 1.5453480489995854), (2, 1.7691221500008396)]",0.5058894230793116
group,47,101,post,3,32,clockwise,clockwise,correct,0.6463111159991968,ac,500,0,500,solo,1.4436437700005627,sg,2.0,0.879648456000723,1,"[(1, 0.0005193799988774117), (2, 0.43272151199926157), (2, 0.8804416389994003)]",0.5303870484043757
group,47,102,post,-3,16,anticlockwise,anticlockwise,correct,1.023883403000582,ca,700,-10,500,solo,0.7496821499989892,gs,4.0,1.3505742649995227,1,"[(1, 0.0004798280006070854), (2, 0.6474609990000317), (3, 0.8874949010005366), (4, 1.1434575820003374), (4, 1.3512756669988448)]",0.5459020436195028
group,47,103,post,-3,8,anticlockwise,anticlockwise,correct,0.858429507999972,ac,500,0,500,solo,1.1345762029995967,sg,4.0,1.3982440639993001,3,"[(3, 0.0005062020009063417), (4, 1.1754682890004915), (4, 1.3989772559998528)]",0.412210093728156
group,47,104,post,-3,32,anticlockwise,anticlockwise,correct,0.7599531779997051,ac,850,0,500,solo,1.0876834999999119,gs,1.0,0.8586034519994428,2,"[(2, 0.0005336139984137844), (1, 0.6355568079998193), (1, 0.8594845389998227)]",0.42654213417863185
group,47,105,pre,3,16,clockwise,clockwise,correct,0.8873754899996129,ac,940,-10,500,solo,1.1158604330012167,sg,2.0,1.6577495279998402,4,"[(4, 0.0005561550005950266), (3, 1.1466686999992817), (2, 1.4185611479988438), (2, 1.6585802049994527)]",0.44463042487098015
group,47,106,post,3,64,clockwise,clockwise,correct,0.9858551709985477,ca,590,-10,500,solo,0.9218926140001713,gs,2.0,0.585767577000297,3,"[(3, 0.0005338279988791328), (2, 0.3787759240003652), (2, 0.5866505230005714)]",0.5925067740319125
group,47,107,post,3,16,clockwise,clockwise,correct,0.6812870180001482,ac,940,10,500,solo,0.5799549209987163,gs,4.0,1.8423801229982928,1,"[(1, 0.0005482569995365338), (1, 0.41916604099969845), (1, 0.7391665039995132), (2, 1.0914088909994462), (3, 1.4434179550007684), (4, 1.6673823199998878), (4, 1.8431405360006465)]",0.4848703918409084
group,47,108,post,3,8,clockwise,clockwise,correct,0.6207191119992785,ac,590,-10,500,solo,1.0183863300007943,gs,5.0,0.5837975799986452,5,"[(5, 0.0005231739996816032), (5, 0.5845560200014006)]",0.5649992382210686
